end_thanks.stopped,finish_train.started,instructions.stopped,mouse_random.midButton,trials.thisIndex,mouse_random.time,mouse_random.corr,surprise_relavent_mouse.rightButton,trials.ran,conf_mouse.leftButton,conf_mouse_irrellevant.midButton,__session,train_mouse.time,mouse_random.leftButton,surprise.started,trial.stopped,trials.thisN,surprise_irrelavent_mouse.leftButton,training.thisIndex,flower_color,train_mouse.clicked_name,train_mouse.leftButton,conf_mouse_irrellevant.x,training.thisRepN,surprise_relavent_mouse.leftButton,conf_mouse.y,surprise_relavent_mouse.clicked_name,trial_mouse.time,prolific_id,surprise_loop.thisRepN,train_mouse.corr,conf_mouse.clicked_name,surprise_relavent_mouse.x,train_mouse.y,surprise_irrelavent_mouse.x,psychopyVersion,done_read_finish_train.duration,surprise_relavent,conf_mouse_irrellevant.clicked_name,__datetime,surprise.stopped,surprise_irrelavent_mouse.midButton,end_thanks.started,date,surprise_irrelavent_mouse.corr,surprise_relavent_mouse.time,response_box_trial.stopped,surprise_relavent_mouse.y,surprise_loop.thisTrialN,pot_image_file,trials.thisRepN,trials.thisTrialN,train.stopped,surprise_loop.thisN,mouse_random.clicked_name,vase_color,done_read_finish_train.rt,confidence_question.started,train.started,wrong_answer_train.stopped,training.thisN,response_box_relavent_surprise.stopped,training.order,trial_mouse.clicked_name,surprise_irrelavent_mouse.rightButton,trial_mouse.midButton,pot_duration,trial_mouse.leftButton,surprise_loop.thisIndex,relevent,trial.started,wrong_answer_train.started,confidence_in_irrelavent.stopped,conf_mouse_irrellevant.y,responce_box_train.started,response_box_surprise.stopped,instructions.started,surprise_relavent_mouse.corr,participant,train_mouse.rightButton,responce_box_train.stopped,surprise_relavent_mouse.midButton,training.ran,expName,OS,confidence_question.stopped,trial_mouse.rightButton,surprise_irrelavent_mouse.y,trial_mouse.y,conf_mouse.time,random_task.started,response_box_surprise.started,__experimentName,conf_mouse.midButton,train_mouse.midButton,surprise_irrelavent_mouse.clicked_name,relevent_train,relevant_object,frameRate,conf_mouse.rightButton,conf_mouse_irrellevant.leftButton,__participant,trial_mouse.corr,language,surprise_loop.ran,train_mouse.x,irrelevent_surprise,done_read_finish_train.keys,conf_mouse.x,surprise_irrelavent_mouse.time,trial_mouse.x,response_box_relavent_surprise.started,training.thisTrialN,confidence_in_irrelavent.started,mouse_random.y,finish_train.stopped,conf_mouse_irrellevant.time,random_task.stopped,response_box_trial.started,mouse_random.x,mouse_random.rightButton,conf_mouse_irrellevant.rightButton
﻿,,15.3003,,,,,,,,,SESSION,,,,,,,,,,,,,,,,,5fd979cd5bc47d2522d06e18,,,,,,,2024.2.4,,,,2025-04-09_21h52.03.816,,,,2025-04-09_21h52.57.245,,,,,,,,,,,,,,,,,,,,,,,,,,,,,,,,,1.00E-04,,292064,,,,,test3103025,Win32,,,,,,,,test,,,,,,147.0588235,,,292064,,English,,,,,,,,,,,,,,,,,,
﻿,,,,,,,,,,,SESSION,[1.3874000000953544],,,,,,9,green,"[""poly_3_train"",""poly_3_train""]",[1],,0,,,,,5fd979cd5bc47d2522d06e18,,[1],,,[-110],,2024.2.4,,poly_2_surprise_relavent,,2025-04-09_21h52.03.816,,,,2025-04-09_21h52.57.245,,,,,,resources/pots/green_purple.jpg,,,17.3132,,,purple,,,15.3131,18.7029,0,,,,,,1,,,poly_3,,18.7026,,,17.3134,,,,292064,[0],18.7025,,1,test3103025,Win32,,,,,,,,test,,[0],,poly_3_train,flower,147.0588235,,,292064,,English,,[310],poly_3_surprise,,,,,,0,,,,,,,,,
﻿,,,,,,,,,,,SESSION,[0.8195999999046393],,,,,,3,lightblue,"[""poly_2_train"",""poly_2_train""]",[1],,0,,,,,5fd979cd5bc47d2522d06e18,,[1],,,[-106],,2024.2.4,,poly_1_surprise_relavent,,2025-04-09_21h52.03.816,,,,2025-04-09_21h52.57.245,,,,,,resources/pots/lightblue_green.jpg,,,20.7004,,,green,,,18.7032,21.5204,1,,,,,,1,,,poly_2,,21.5202,,,20.7005,,,,292064,[0],21.5201,,1,test3103025,Win32,,,,,,,,test,,[0],,poly_2_train,flower,147.0588235,,,292064,,English,,[116],poly_2_surprise,,,,,,1,,,,,,,,,
﻿,,,,,,,,,,,SESSION,[0.6807000002860946],,,,,,6,green,"[""poly_3_train"",""poly_3_train""]",[1],,0,,,,,5fd979cd5bc47d2522d06e18,,[1],,,[-105],,2024.2.4,,poly_0_surprise_relavent,,2025-04-09_21h52.03.816,,,,2025-04-09_21h52.57.245,,,,,,resources/pots/green_orange.jpg,,,23.5193,,,orange,,,21.5205,24.2002,2,,,,,,1,,,poly_3,,24.2001,,,23.5194,,,,292064,[0],24.2001,,1,test3103025,Win32,,,,,,,,test,,[0],,poly_3_train,flower,147.0588235,,,292064,,English,,[293],poly_3_surprise,,,,,,2,,,,,,,,,
﻿,,,,,,,,,,,SESSION,[0.784700000286108],,,,,,5,yellow,"[""poly_1_train"",""poly_1_train""]",[1],,0,,,,,5fd979cd5bc47d2522d06e18,,[1],,,[-90],,2024.2.4,,poly_0_surprise_relavent,,2025-04-09_21h52.03.816,,,,2025-04-09_21h52.57.245,,,,,,resources/pots/yellow_orange.jpg,,,26.2002,,,orange,,,24.2004,26.9851,3,,,,,,1,,,poly_1,,26.9851,,,26.2003,,,,292064,[0],26.985,,1,test3103025,Win32,,,,,,,,test,,[0],,poly_1_train,flower,147.0588235,,,292064,,English,,[-88],poly_1_surprise,,,,,,3,,,,,,,,,
﻿,,,,,,,,,,,SESSION,[],,,,,,4,yellow,[],[],,0,,,,,5fd979cd5bc47d2522d06e18,,[],,,[],,2024.2.4,,poly_3_surprise_relavent,,2025-04-09_21h52.03.816,,,,2025-04-09_21h52.57.245,,,,,,resources/pots/yellow_deepblue.jpg,,,26.9854,,,deepblue,,,26.9854,26.9855,4,,,,,,1,,,poly_1,,26.9854,,,26.9854,,,,292064,[],26.9854,,1,test3103025,Win32,,,,,,,,test,,[],,poly_1_train,flower,147.0588235,,,292064,,English,,[],poly_1_surprise,,,,,,4,,,,,,,,,
﻿,,,,,,,,,,,SESSION,[],,,,,,1,yellow,[],[],,0,,,,,5fd979cd5bc47d2522d06e18,,[],,,[],,2024.2.4,,poly_1_surprise_relavent,,2025-04-09_21h52.03.816,,,,2025-04-09_21h52.57.245,,,,,,resources/pots/yellow_green.jpg,,,26.9858,,,green,,,26.9858,26.9859,5,,,,,,1,,,poly_1,,26.9859,,,26.9858,,,,292064,[],26.9858,,1,test3103025,Win32,,,,,,,,test,,[],,poly_1_train,flower,147.0588235,,,292064,,English,,[],poly_1_surprise,,,,,,5,,,,,,,,,
﻿,,,,,,,,,,,SESSION,[],,,,,,8,red,[],[],,0,,,,,5fd979cd5bc47d2522d06e18,,[],,,[],,2024.2.4,,poly_2_surprise_relavent,,2025-04-09_21h52.03.816,,,,2025-04-09_21h52.57.245,,,,,,resources/pots/red_purple.jpg,,,26.986,,,purple,,,26.986,26.986,6,,,,,,1,,,poly_0,,26.986,,,26.986,,,,292064,[],26.986,,1,test3103025,Win32,,,,,,,,test,,[],,poly_0_train,flower,147.0588235,,,292064,,English,,[],poly_0_surprise,,,,,,6,,,,,,,,,
﻿,,,,,,,,,,,SESSION,[],,,,,,7,yellow,[],[],,0,,,,,5fd979cd5bc47d2522d06e18,,[],,,[],,2024.2.4,,poly_3_surprise_relavent,,2025-04-09_21h52.03.816,,,,2025-04-09_21h52.57.245,,,,,,resources/pots/yellow_deepblue.jpg,,,26.9861,,,deepblue,,,26.9861,26.9862,7,,,,,,1,,,poly_1,,26.9862,,,26.9861,,,,292064,[],26.9861,,1,test3103025,Win32,,,,,,,,test,,[],,poly_1_train,flower,147.0588235,,,292064,,English,,[],poly_1_surprise,,,,,,7,,,,,,,,,
﻿,,,,,,,,,,,SESSION,[],,,,,,0,yellow,[],[],,0,,,,,5fd979cd5bc47d2522d06e18,,[],,,[],,2024.2.4,,poly_0_surprise_relavent,,2025-04-09_21h52.03.816,,,,2025-04-09_21h52.57.245,,,,,,resources/pots/yellow_orange.jpg,,,26.9863,,,orange,,,26.9863,26.9864,8,,,,,,1,,,poly_1,,26.9864,,,26.9864,,,,292064,[],26.9864,,1,test3103025,Win32,,,,,,,,test,,[],,poly_1_train,flower,147.0588235,,,292064,,English,,[],poly_1_surprise,,,,,,8,,,,,,,,,
﻿,,,,,,,,,,,SESSION,[],,,,,,2,lightblue,[],[],,0,,,,,5fd979cd5bc47d2522d06e18,,[],,,[],,2024.2.4,,poly_2_surprise_relavent,,2025-04-09_21h52.03.816,,,,2025-04-09_21h52.57.245,,,,,,resources/pots/lightblue_purple.jpg,,,26.9865,,,purple,,,26.9865,26.9865,9,,,,,,1,,,poly_2,,26.9865,,,26.9865,,,,292064,[],26.9865,,1,test3103025,Win32,,,,,,,,test,,[],,poly_2_train,flower,147.0588235,,,292064,,English,,[],poly_2_surprise,,,,,,9,,,,,,,,,
﻿,26.9866,,,,,,,,,,SESSION,,,,,,,,,,,,,,,,,5fd979cd5bc47d2522d06e18,,,,,,,2024.2.4,,,,2025-04-09_21h52.03.816,,,,2025-04-09_21h52.57.245,,,,,,,,,,,,,3.7989,,,,,,,,,,,,,,,,,,,,,,292064,,,,,test3103025,Win32,,,,,,,,test,,,,,,147.0588235,,,292064,,English,,,,space,,,,,,,,30.7982,,,,,,
﻿,,,[],17,[],[],,1,[1],,SESSION,,[],,32.8053,0,,,red,,,,,,[-106],,[0.7976000003814789],5fd979cd5bc47d2522d06e18,,,"[""Memory"",""Memory""]",,,,2024.2.4,,poly_3_surprise_relavent,,2025-04-09_21h52.03.816,,,,2025-04-09_21h52.57.245,,,33.6042,,,resources/pots/red_deepblue.jpg,0,0,,,[],deepblue,,33.6043,,,,,,"[""poly_0"",""poly_0""]",,[0],1,[1],,poly_0,30.8038,,,,,,,,292064,,,,,test3103025,Win32,36.5906,[0],,[-101],[2.98590000009537],32.8054,,test,[0],,,poly_0_train,flower,147.0588235,[0],,292064,[1],English,,,poly_0_surprise,,[-99],,[-287],,,,[],,,32.8057,32.8059,[],[],
﻿,,,[],36,[],[],,1,[],,SESSION,,[],,38.5896,1,,,lightblue,,,,,,[],,[0.6944000000953707],5fd979cd5bc47d2522d06e18,,,[],,,,2024.2.4,,poly_1_surprise_relavent,,2025-04-09_21h52.03.816,,,,2025-04-09_21h52.57.245,,,39.2843,,,resources/pots/lightblue_green.jpg,0,1,,,[],green,,39.2843,,,,,,"[""poly_2"",""poly_2""]",,[0],1,[1],,poly_2,36.5908,,,,,,,,292064,,,,,test3103025,Win32,39.2844,[0],,[-103],[],38.5897,,test,[],,,poly_2_train,flower,147.0588235,[],,292064,[1],English,,,poly_2_surprise,,[],,[103],,,,[],,,38.5898,38.5898,[],[],
﻿,,,[],18,[],[],,1,[],,SESSION,,[],,41.2846,2,,,lightblue,,,,,,[],,[0.555499999999995],5fd979cd5bc47d2522d06e18,,,[],,,,2024.2.4,,poly_0_surprise_relavent,,2025-04-09_21h52.03.816,,,,2025-04-09_21h52.57.245,,,41.8402,,,resources/pots/lightblue_orange.jpg,0,2,,,[],orange,,41.8402,,,,,,"[""poly_2"",""poly_2""]",,[0],1,[1],,poly_2,39.2846,,,,,,,,292064,,,,,test3103025,Win32,41.8403,[0],,[-104],[],41.2846,,test,[],,,poly_2_train,flower,147.0588235,[],,292064,[1],English,,,poly_2_surprise,,[],,[106],,,,[],,,41.2846,41.2847,[],[],
﻿,,,[],16,[],[],,1,[],,SESSION,,[],,43.8403,3,,,green,,,,,,[],,[0.7012999997138962],5fd979cd5bc47d2522d06e18,,,[],,,,2024.2.4,,poly_0_surprise_relavent,,2025-04-09_21h52.03.816,,,,2025-04-09_21h52.57.245,,,44.5419,,,resources/pots/green_orange.jpg,0,3,,,[],orange,,44.5419,,,,,,"[""poly_3"",""poly_3""]",,[0],1,[1],,poly_3,41.8405,,,,,,,,292064,,,,,test3103025,Win32,44.5419,[0],,[-110],[],43.8403,,test,[],,,poly_3_train,flower,147.0588235,[],,292064,[1],English,,,poly_3_surprise,,[],,[323],,,,[],,,43.8404,43.8405,[],[],
﻿,,,[],35,[],[],,1,[1],,SESSION,,[],,46.542,4,,,lightblue,,,,,,[-111],,[0.6665999999046335],5fd979cd5bc47d2522d06e18,,,"[""Memory"",""Memory""]",,,,2024.2.4,,poly_2_surprise_relavent,,2025-04-09_21h52.03.816,,,,2025-04-09_21h52.57.245,,,47.2088,,,resources/pots/lightblue_purple.jpg,0,4,,,[],purple,,47.2089,,,,,,"[""poly_2"",""poly_2""]",,[0],1,[1],,poly_2,44.5422,,,,,,,,292064,,,,,test3103025,Win32,48.5354,[0],,[-110],[1.3264999999999958],46.5421,,test,[0],,,poly_2_train,flower,147.0588235,[0],,292064,[1],English,,,poly_2_surprise,,[-100],,[123],,,,[],,,46.5421,46.5422,[],[],
﻿,,,[],19,[],[],,1,[],,SESSION,,[],,50.5356,5,,,lightblue,,,,,,[],,[0.4999000000953657],5fd979cd5bc47d2522d06e18,,,[],,,,2024.2.4,,poly_1_surprise_relavent,,2025-04-09_21h52.03.816,,,,2025-04-09_21h52.57.245,,,51.0357,,,resources/pots/lightblue_green.jpg,0,5,,,[],green,,51.0358,,,,,,"[""poly_2"",""poly_2""]",,[0],1,[1],,poly_2,48.5356,,,,,,,,292064,,,,,test3103025,Win32,51.0358,[0],,[-115],[],50.5356,,test,[],,,poly_2_train,flower,147.0588235,[],,292064,[1],English,,,poly_2_surprise,,[],,[108],,,,[],,,50.5356,50.5358,[],[],
﻿,,,[],29,[],[],,1,[],,SESSION,,[],,53.035,6,,,red,,,,,,[],,[0.6526999998092577],5fd979cd5bc47d2522d06e18,,,[],,,,2024.2.4,,poly_3_surprise_relavent,,2025-04-09_21h52.03.816,,,,2025-04-09_21h52.57.245,,,53.688,,,resources/pots/red_deepblue.jpg,0,6,,,[],deepblue,,53.688,,,,,,"[""poly_0"",""poly_0""]",,[0],1,[1],,poly_0,51.036,,,,,,,,292064,,,,,test3103025,Win32,53.688,[0],,[-97],[],53.035,,test,[],,,poly_0_train,flower,147.0588235,[],,292064,[1],English,,,poly_0_surprise,,[],,[-345],,,,[],,,53.035,53.0351,[],[],
﻿,,,[],30,[],[],,1,[1],,SESSION,,[],,55.6871,7,,,red,,,,,,[-102],,[0.4860999999046385],5fd979cd5bc47d2522d06e18,,,"[""Memory"",""Memory""]",,,,2024.2.4,,poly_2_surprise_relavent,,2025-04-09_21h52.03.816,,,,2025-04-09_21h52.57.245,,,56.1734,,,resources/pots/red_purple.jpg,0,7,,,[],purple,,56.1735,,,,,,"[""poly_0"",""poly_0""]",,[0],1,[1],,poly_0,53.6883,,,,,,,,292064,,,,,test3103025,Win32,57.5625,[0],,[-103],[1.3888999996185305],55.6872,,test,[0],,,poly_0_train,flower,147.0588235,[0],,292064,[1],English,,,poly_0_surprise,,[-96],,[-283],,,,[],,,55.6872,55.6873,[],[],
﻿,,,[],9,[],[],,1,[],,SESSION,,[],,59.5627,8,,,green,,,,,,[],,[0.7845999999046427],5fd979cd5bc47d2522d06e18,,,[],,,,2024.2.4,,poly_2_surprise_relavent,,2025-04-09_21h52.03.816,,,,2025-04-09_21h52.57.245,,,60.3475,,,resources/pots/green_purple.jpg,0,8,,,[],purple,,60.3476,,,,,,"[""poly_3"",""poly_3""]",,[0],1,[1],,poly_3,57.5628,,,,,,,,292064,,,,,test3103025,Win32,60.3476,[0],,[-104],[],59.5627,,test,[],,,poly_3_train,flower,147.0588235,[],,292064,[1],English,,,poly_3_surprise,,[],,[292],,,,[],,,59.5627,59.5628,[],[],
﻿,,,[],26,[],[],,1,[],,SESSION,,[],,62.3477,9,,,lightblue,,,,,,[],,[0.5416000003814787],5fd979cd5bc47d2522d06e18,,,[],,,,2024.2.4,,poly_0_surprise_relavent,,2025-04-09_21h52.03.816,,,,2025-04-09_21h52.57.245,,,62.8895,,,resources/pots/lightblue_orange.jpg,0,9,,,[],orange,,62.8895,,,,,,"[""poly_2"",""poly_2""]",,[0],1,[1],,poly_2,60.3478,,,,,,,,292064,,,,,test3103025,Win32,62.8895,[0],,[-104],[],62.3477,,test,[],,,poly_2_train,flower,147.0588235,[],,292064,[1],English,,,poly_2_surprise,,[],,[131],,,,[],,,62.3478,62.3478,[],[],
﻿,,,[],32,[],[],,1,[],,SESSION,,[],,64.8897,10,,,yellow,,,,,,[],,[0.5350000000000108],5fd979cd5bc47d2522d06e18,,,[],,,,2024.2.4,,poly_0_surprise_relavent,,2025-04-09_21h52.03.816,,,,2025-04-09_21h52.57.245,,,65.4248,,,resources/pots/yellow_orange.jpg,0,10,,,[],orange,,65.4248,,,,,,"[""poly_1"",""poly_1""]",,[0],1,[1],,poly_1,62.8898,,,,,,,,292064,,,,,test3103025,Win32,65.4249,[0],,[-98],[],64.8897,,test,[],,,poly_1_train,flower,147.0588235,[],,292064,[1],English,,,poly_1_surprise,,[],,[-84],,,,[],,,64.8898,64.8898,[],[],
﻿,,,[],12,[],[],,1,[],,SESSION,,[],,67.4239,11,,,red,,,,,,[],,[0.770799999713887],5fd979cd5bc47d2522d06e18,,,[],,,,2024.2.4,,poly_1_surprise_relavent,,2025-04-09_21h52.03.816,,,,2025-04-09_21h52.57.245,,,68.1948,,,resources/pots/red_green.jpg,0,11,,,[],green,,68.1949,,,,,,"[""poly_0"",""poly_0""]",,[0],1,[1],,poly_0,65.4251,,,,,,,,292064,,,,,test3103025,Win32,68.1949,[0],,[-96],[],67.4239,,test,[],,,poly_0_train,flower,147.0588235,[],,292064,[1],English,,,poly_0_surprise,,[],,[-280],,,,[],,,67.424,67.424,[],[],
﻿,,,[],37,[],[],,1,[],,SESSION,,[],,70.1943,12,,,green,,,,,,[],,[0.6665000000000134],5fd979cd5bc47d2522d06e18,,,[],,,,2024.2.4,,poly_2_surprise_relavent,,2025-04-09_21h52.03.816,,,,2025-04-09_21h52.57.245,,,70.8609,,,resources/pots/green_purple.jpg,0,12,,,[],purple,,70.8609,,,,,,"[""poly_3"",""poly_3""]",,[0],1,[1],,poly_3,68.1951,,,,,,,,292064,,,,,test3103025,Win32,70.861,[0],,[-99],[],70.1944,,test,[],,,poly_3_train,flower,147.0588235,[],,292064,[1],English,,,poly_3_surprise,,[],,[282],,,,[],,,70.1944,70.1944,[],[],
﻿,,,[],22,[],[],,1,[1],,SESSION,,[],,72.861,13,,,red,,,,,,[-103],,[0.75],5fd979cd5bc47d2522d06e18,,,"[""Memory"",""Memory""]",,,,2024.2.4,,poly_1_surprise_relavent,,2025-04-09_21h52.03.816,,,,2025-04-09_21h52.57.245,,,73.6113,,,resources/pots/red_green.jpg,0,13,,,[],green,,73.6113,,,,,,"[""poly_0"",""poly_0""]",,[0],1,[1],,poly_0,70.8611,,,,,,,,292064,,,,,test3103025,Win32,74.8545,[0],,[-110],[1.2430999999046293],72.861,,test,[0],,,poly_0_train,flower,147.0588235,[0],,292064,[1],English,,,poly_0_surprise,,[-93],,[-308],,,,[],,,72.8611,72.8612,[],[],
﻿,,,[],6,[],[],,1,[],,SESSION,,[],,76.8546,14,,,green,,,,,,[],,[0.6458000001907465],5fd979cd5bc47d2522d06e18,,,[],,,,2024.2.4,,poly_0_surprise_relavent,,2025-04-09_21h52.03.816,,,,2025-04-09_21h52.57.245,,,77.5005,,,resources/pots/green_orange.jpg,0,14,,,[],orange,,77.5006,,,,,,"[""poly_3"",""poly_3""]",,[0],1,[1],,poly_3,74.8547,,,,,,,,292064,,,,,test3103025,Win32,77.5007,[0],,[-122],[],76.8546,,test,[],,,poly_3_train,flower,147.0588235,[],,292064,[1],English,,,poly_3_surprise,,[],,[304],,,,[],,,76.8547,76.8547,[],[],
﻿,,,[],40,[],[],,1,[],,SESSION,,[],,79.5008,15,,,red,,,,,,[],,[0.6942999997139054],5fd979cd5bc47d2522d06e18,,,[],,,,2024.2.4,,poly_1_surprise_relavent,,2025-04-09_21h52.03.816,,,,2025-04-09_21h52.57.245,,,80.1953,,,resources/pots/red_green.jpg,0,15,,,[],green,,80.1954,,,,,,"[""poly_0"",""poly_0""]",,[0],1,[1],,poly_0,77.5009,,,,,,,,292064,,,,,test3103025,Win32,80.1954,[0],,[-101],[],79.5008,,test,[],,,poly_0_train,flower,147.0588235,[],,292064,[1],English,,,poly_0_surprise,,[],,[-297],,,,[],,,79.5008,79.501,[],[],
﻿,,,[],0,[],[],,1,[],,SESSION,,[],,82.1955,16,,,yellow,,,,,,[],,[0.5279000000953715],5fd979cd5bc47d2522d06e18,,,[],,,,2024.2.4,,poly_0_surprise_relavent,,2025-04-09_21h52.03.816,,,,2025-04-09_21h52.57.245,,,82.7235,,,resources/pots/yellow_orange.jpg,0,16,,,[],orange,,82.7235,,,,,,"[""poly_1"",""poly_1""]",,[0],1,[1],,poly_1,80.1956,,,,,,,,292064,,,,,test3103025,Win32,82.7235,[0],,[-99],[],82.1955,,test,[],,,poly_1_train,flower,147.0588235,[],,292064,[1],English,,,poly_1_surprise,,[],,[-97],,,,[],,,82.1956,82.1956,[],[],
﻿,,,[],27,[],[],,1,[],,SESSION,,[],,84.7227,17,,,lightblue,,,,,,[],,[0.6180999999046151],5fd979cd5bc47d2522d06e18,,,[],,,,2024.2.4,,poly_0_surprise_relavent,,2025-04-09_21h52.03.816,,,,2025-04-09_21h52.57.245,,,85.3409,,,resources/pots/lightblue_orange.jpg,0,17,,,[],orange,,85.341,,,,,,"[""poly_2"",""poly_2""]",,[0],1,[1],,poly_2,82.7237,,,,,,,,292064,,,,,test3103025,Win32,85.341,[0],,[-115],[],84.7227,,test,[],,,poly_2_train,flower,147.0588235,[],,292064,[1],English,,,poly_2_surprise,,[],,[98],,,,[],,,84.7227,84.7228,[],[],
﻿,,,[],39,[],[],,1,[],,SESSION,,[],,87.341,18,,,green,,,,,,[],,[0.8263000001907415],5fd979cd5bc47d2522d06e18,,,[],,,,2024.2.4,,poly_0_surprise_relavent,,2025-04-09_21h52.03.816,,,,2025-04-09_21h52.57.245,,,88.1676,,,resources/pots/green_orange.jpg,0,18,,,[],orange,,88.1676,,,,,,"[""poly_3"",""poly_3""]",,[0],1,[1],,poly_3,85.3412,,,,,,,,292064,,,,,test3103025,Win32,88.1677,[0],,[-107],[],87.341,,test,[],,,poly_3_train,flower,147.0588235,[],,292064,[1],English,,,poly_3_surprise,,[],,[331],,,,[],,,87.3411,87.3411,[],[],
﻿,,,[],4,[],[],,1,[],,SESSION,,[],,90.1677,19,,,yellow,,,,,,[],,[0.6388000001907415],5fd979cd5bc47d2522d06e18,,,[],,,,2024.2.4,,poly_3_surprise_relavent,,2025-04-09_21h52.03.816,,,,2025-04-09_21h52.57.245,,,90.8068,,,resources/pots/yellow_deepblue.jpg,0,19,,,[],deepblue,,90.8068,,,,,,"[""poly_1"",""poly_1""]",,[0],1,[1],,poly_1,88.1679,,,,,,,,292064,,,,,test3103025,Win32,90.8069,[0],,[-110],[],90.1677,,test,[],,,poly_1_train,flower,147.0588235,[],,292064,[1],English,,,poly_1_surprise,,[],,[-105],,,,[],,,90.1678,90.1679,[],[],
﻿,,,[],33,[],[],,1,[],,SESSION,,[],,92.807,20,,,yellow,,,,,,[],,[0.38879999971391044],5fd979cd5bc47d2522d06e18,,,[],,,,2024.2.4,,poly_0_surprise_relavent,,2025-04-09_21h52.03.816,,,,2025-04-09_21h52.57.245,,,93.196,,,resources/pots/yellow_orange.jpg,0,20,,,[],orange,,93.196,,,,,,"[""poly_1"",""poly_1""]",,[0],1,[1],,poly_1,90.8071,,,,,,,,292064,,,,,test3103025,Win32,93.1961,[0],,[-94],[],92.807,,test,[],,,poly_1_train,flower,147.0588235,[],,292064,[1],English,,,poly_1_surprise,,[],,[-96],,,,[],,,92.8071,92.8071,[],[],
﻿,,,[0],7,[3.497000000000014],[1],,1,[1],,SESSION,,[1],,95.1961,21,,,yellow,,,,,,[-106],,[1.930400000095375],5fd979cd5bc47d2522d06e18,,,"[""Memory"",""Memory""]",,,,2024.2.4,,poly_3_surprise_relavent,,2025-04-09_21h52.03.816,,,,2025-04-09_21h52.57.245,,,101.6276,,,resources/pots/yellow_deepblue.jpg,0,21,,,"[""num_4"",""num_4""]",deepblue,,101.6276,,,,,,"[""poly_1"",""poly_1""]",,[0],1,[1],,poly_1,93.1962,,,,,,,,292064,,,,,test3103025,Win32,103.732,[0],,[-71],[2.104299999713902],95.1961,,test,[0],,,poly_1_train,flower,147.0588235,[0],,292064,[1],English,,,poly_1_surprise,,[-119],,[-109],,,,[-106],,,99.697,99.6972,[138],[0],
﻿,,,[],28,[],[],,1,[],,SESSION,,[],,105.7322,22,,,yellow,,,,,,[],,[0.7084000000953665],5fd979cd5bc47d2522d06e18,,,[],,,,2024.2.4,,poly_1_surprise_relavent,,2025-04-09_21h52.03.816,,,,2025-04-09_21h52.57.245,,,106.4407,,,resources/pots/yellow_green.jpg,0,22,,,[],green,,106.4407,,,,,,"[""poly_1"",""poly_1""]",,[0],1,[1],,poly_1,103.7322,,,,,,,,292064,,,,,test3103025,Win32,106.4408,[0],,[-102],[],105.7322,,test,[],,,poly_1_train,flower,147.0588235,[],,292064,[1],English,,,poly_1_surprise,,[],,[-93],,,,[],,,105.7322,105.7323,[],[],
﻿,,,[],5,[],[],,1,[],,SESSION,,[],,108.439,23,,,yellow,,,,,,[],,[0.4720999999046285],5fd979cd5bc47d2522d06e18,,,[],,,,2024.2.4,,poly_0_surprise_relavent,,2025-04-09_21h52.03.816,,,,2025-04-09_21h52.57.245,,,108.9112,,,resources/pots/yellow_orange.jpg,0,23,,,[],orange,,108.9113,,,,,,"[""poly_1"",""poly_1""]",,[0],1,[1],,poly_1,106.441,,,,,,,,292064,,,,,test3103025,Win32,108.9113,[0],,[-77],[],108.4391,,test,[],,,poly_1_train,flower,147.0588235,[],,292064,[1],English,,,poly_1_surprise,,[],,[-119],,,,[],,,108.4391,108.4391,[],[],
﻿,,,[],2,[],[],,1,[1],,SESSION,,[],,110.9115,24,,,lightblue,,,,,,[-102],,[0.5554000000953465],5fd979cd5bc47d2522d06e18,,,"[""Memory"",""Memory""]",,,,2024.2.4,,poly_2_surprise_relavent,,2025-04-09_21h52.03.816,,,,2025-04-09_21h52.57.245,,,111.4672,,,resources/pots/lightblue_purple.jpg,0,24,,,[],purple,,111.4672,,,,,,"[""poly_2"",""poly_2""]",,[0],1,[1],,poly_2,108.9115,,,,,,,,292064,,,,,test3103025,Win32,113.7452,[0],,[-74],[2.2779999999999916],110.9115,,test,[0],,,poly_2_train,flower,147.0588235,[0],,292064,[1],English,,,poly_2_surprise,,[-100],,[101],,,,[],,,110.9116,110.9116,[],[],
﻿,,,[],23,[],[],,1,[],,SESSION,,[],,115.7455,25,,,red,,,,,,[],,[0.715199999809272],5fd979cd5bc47d2522d06e18,,,[],,,,2024.2.4,,poly_3_surprise_relavent,,2025-04-09_21h52.03.816,,,,2025-04-09_21h52.57.245,,,116.4608,,,resources/pots/red_deepblue.jpg,0,25,,,[],deepblue,,116.4609,,,,,,"[""poly_0"",""poly_0""]",,[0],1,[1],,poly_0,113.7455,,,,,,,,292064,,,,,test3103025,Win32,116.4609,[0],,[-75],[],115.7455,,test,[],,,poly_0_train,flower,147.0588235,[],,292064,[1],English,,,poly_0_surprise,,[],,[-258],,,,[],,,115.7456,115.7456,[],[],
﻿,,,[],38,[],[],,1,[],,SESSION,,[],,118.46,26,,,yellow,,,,,,[],,[0.5972999997139254],5fd979cd5bc47d2522d06e18,,,[],,,,2024.2.4,,poly_1_surprise_relavent,,2025-04-09_21h52.03.816,,,,2025-04-09_21h52.57.245,,,119.0575,,,resources/pots/yellow_green.jpg,0,26,,,[],green,,119.0575,,,,,,"[""poly_1"",""poly_1""]",,[0],1,[1],,poly_1,116.4612,,,,,,,,292064,,,,,test3103025,Win32,119.0576,[0],,[-80],[],118.46,,test,[],,,poly_1_train,flower,147.0588235,[],,292064,[1],English,,,poly_1_surprise,,[],,[-120],,,,[],,,118.4601,118.4601,[],[],
﻿,,,[],31,[],[],,1,[1],,SESSION,,[],,121.0576,27,,,red,,,,,,[-103],,[0.7779000000953715],5fd979cd5bc47d2522d06e18,,,"[""Memory"",""Memory""]",,,,2024.2.4,,poly_1_surprise_relavent,,2025-04-09_21h52.03.816,,,,2025-04-09_21h52.57.245,,,121.8356,,,resources/pots/red_green.jpg,0,27,,,[],green,,121.8356,,,,,,"[""poly_0"",""poly_0""]",,[0],1,[1],,poly_0,119.0577,,,,,,,,292064,,,,,test3103025,Win32,122.9815,[0],,[-102],[1.145799999713887],121.0576,,test,[0],,,poly_0_train,flower,147.0588235,[0],,292064,[1],English,,,poly_0_surprise,,[-99],,[-277],,,,[],,,121.0577,121.0577,[],[],
﻿,,,[],21,[],[],,1,[],,SESSION,,[],,124.9818,28,,,lightblue,,,,,,[],,[0.4166000003814645],5fd979cd5bc47d2522d06e18,,,[],,,,2024.2.4,,poly_0_surprise_relavent,,2025-04-09_21h52.03.816,,,,2025-04-09_21h52.57.245,,,125.3985,,,resources/pots/lightblue_orange.jpg,0,28,,,[],orange,,125.3986,,,,,,"[""poly_2"",""poly_2""]",,[0],1,[1],,poly_2,122.9816,,,,,,,,292064,,,,,test3103025,Win32,125.3986,[0],,[-109],[],124.9818,,test,[],,,poly_2_train,flower,147.0588235,[],,292064,[1],English,,,poly_2_surprise,,[],,[97],,,,[],,,124.9818,124.9818,[],[],
﻿,,,[],25,[],[],,1,[],,SESSION,,[],,127.3979,29,,,yellow,,,,,,[],,[0.43729999971390043],5fd979cd5bc47d2522d06e18,,,[],,,,2024.2.4,,poly_3_surprise_relavent,,2025-04-09_21h52.03.816,,,,2025-04-09_21h52.57.245,,,127.8354,,,resources/pots/yellow_deepblue.jpg,0,29,,,[],deepblue,,127.8354,,,,,,"[""poly_1"",""poly_1""]",,[0],1,[1],,poly_1,125.3988,,,,,,,,292064,,,,,test3103025,Win32,127.8354,[0],,[-89],[],127.3979,,test,[],,,poly_1_train,flower,147.0588235,[],,292064,[1],English,,,poly_1_surprise,,[],,[-87],,,,[],,,127.3979,127.398,[],[],
﻿,,,[],15,[],[],,1,[],,SESSION,,[],,129.8347,30,,,lightblue,,,,,,[],,[0.45130000019074146],5fd979cd5bc47d2522d06e18,,,[],,,,2024.2.4,,poly_2_surprise_relavent,,2025-04-09_21h52.03.816,,,,2025-04-09_21h52.57.245,,,130.2861,,,resources/pots/lightblue_purple.jpg,0,30,,,[],purple,,130.2861,,,,,,"[""poly_2"",""poly_2""]",,[0],1,[1],,poly_2,127.8357,,,,,,,,292064,,,,,test3103025,Win32,130.2862,[0],,[-84],[],129.8347,,test,[],,,poly_2_train,flower,147.0588235,[],,292064,[1],English,,,poly_2_surprise,,[],,[107],,,,[],,,129.8347,129.8348,[],[],
﻿,,,[],20,[],[],,1,[],,SESSION,,[],,132.2863,31,,,green,,,,,,[],,[0.5693999996185255],5fd979cd5bc47d2522d06e18,,,[],,,,2024.2.4,,poly_3_surprise_relavent,,2025-04-09_21h52.03.816,,,,2025-04-09_21h52.57.245,,,132.8559,,,resources/pots/green_deepblue.jpg,0,31,,,[],deepblue,,132.8559,,,,,,"[""poly_3"",""poly_3""]",,[0],1,[1],,poly_3,130.2864,,,,,,,,292064,,,,,test3103025,Win32,132.856,[0],,[-89],[],132.2863,,test,[],,,poly_3_train,flower,147.0588235,[],,292064,[1],English,,,poly_3_surprise,,[],,[304],,,,[],,,132.2864,132.2864,[],[],
﻿,,,[],3,[],[],,1,[],,SESSION,,[],,134.8562,32,,,lightblue,,,,,,[],,[0.4720999999046285],5fd979cd5bc47d2522d06e18,,,[],,,,2024.2.4,,poly_1_surprise_relavent,,2025-04-09_21h52.03.816,,,,2025-04-09_21h52.57.245,,,135.3284,,,resources/pots/lightblue_green.jpg,0,32,,,[],green,,135.3285,,,,,,"[""poly_2"",""poly_2""]",,[0],1,[1],,poly_2,132.8562,,,,,,,,292064,,,,,test3103025,Win32,135.3285,[0],,[-99],[],134.8562,,test,[],,,poly_2_train,flower,147.0588235,[],,292064,[1],English,,,poly_2_surprise,,[],,[130],,,,[],,,134.8563,134.8563,[],[],
﻿,,,[],10,[],[],,1,[],,SESSION,,[],,137.3287,33,,,yellow,,,,,,[],,[0.583200000286098],5fd979cd5bc47d2522d06e18,,,[],,,,2024.2.4,,poly_3_surprise_relavent,,2025-04-09_21h52.03.816,,,,2025-04-09_21h52.57.245,,,137.9121,,,resources/pots/yellow_deepblue.jpg,0,33,,,[],deepblue,,137.9121,,,,,,"[""poly_1"",""poly_1""]",,[0],1,[1],,poly_1,135.3288,,,,,,,,292064,,,,,test3103025,Win32,137.9122,[0],,[-93],[],137.3287,,test,[],,,poly_1_train,flower,147.0588235,[],,292064,[1],English,,,poly_1_surprise,,[],,[-70],,,,[],,,137.3287,137.3288,[],[],
﻿,,,[],24,[],[],,1,[1],,SESSION,,[],,139.9123,34,,,lightblue,,,,,,[-101],,[0.4303999996185155],5fd979cd5bc47d2522d06e18,,,"[""Memory"",""Memory""]",,,,2024.2.4,,poly_1_surprise_relavent,,2025-04-09_21h52.03.816,,,,2025-04-09_21h52.57.245,,,140.3429,,,resources/pots/lightblue_green.jpg,0,34,,,[],green,,140.3429,,,,,,"[""poly_2"",""poly_2""]",,[0],1,[1],,poly_2,137.9124,,,,,,,,292064,,,,,test3103025,Win32,141.7528,[0],,[-103],[1.4099000000953765],139.9124,,test,[0],,,poly_2_train,flower,147.0588235,[0],,292064,[1],English,,,poly_2_surprise,,[-100],,[123],,,,[],,,139.9124,139.9125,[],[],
﻿,,,[],14,[],[],,1,[],,SESSION,,[],,143.7521,35,,,red,,,,,,[],,[0.652800000190723],5fd979cd5bc47d2522d06e18,,,[],,,,2024.2.4,,poly_2_surprise_relavent,,2025-04-09_21h52.03.816,,,,2025-04-09_21h52.57.245,,,144.405,,,resources/pots/red_purple.jpg,0,35,,,[],purple,,144.4051,,,,,,"[""poly_0"",""poly_0""]",,[0],1,[1],,poly_0,141.7531,,,,,,,,292064,,,,,test3103025,Win32,144.4051,[0],,[-95],[],143.7521,,test,[],,,poly_0_train,flower,147.0588235,[],,292064,[1],English,,,poly_0_surprise,,[],,[-272],,,,[],,,143.7522,143.7522,[],[],
﻿,,,[],8,[],[],,1,[],,SESSION,,[],,146.4052,36,,,red,,,,,,[],,[0.5069999999999766],5fd979cd5bc47d2522d06e18,,,[],,,,2024.2.4,,poly_2_surprise_relavent,,2025-04-09_21h52.03.816,,,,2025-04-09_21h52.57.245,,,146.9123,,,resources/pots/red_purple.jpg,0,36,,,[],purple,,146.9123,,,,,,"[""poly_0"",""poly_0""]",,[0],1,[1],,poly_0,144.4053,,,,,,,,292064,,,,,test3103025,Win32,146.9123,[0],,[-100],[],146.4052,,test,[],,,poly_0_train,flower,147.0588235,[],,292064,[1],English,,,poly_0_surprise,,[],,[-294],,,,[],,,146.4053,146.4053,[],[],
﻿,,,[],34,[],[],,1,[],,SESSION,,[],,148.9126,37,,,lightblue,,,,,,[],,[0.6803000001907265],5fd979cd5bc47d2522d06e18,,,[],,,,2024.2.4,,poly_2_surprise_relavent,,2025-04-09_21h52.03.816,,,,2025-04-09_21h52.57.245,,,149.5932,,,resources/pots/lightblue_purple.jpg,0,37,,,[],purple,,149.5932,,,,,,"[""poly_2"",""poly_2""]",,[0],1,[1],,poly_2,146.9125,,,,,,,,292064,,,,,test3103025,Win32,149.5933,[0],,[-97],[],148.9127,,test,[],,,poly_2_train,flower,147.0588235,[],,292064,[1],English,,,poly_2_surprise,,[],,[115],,,,[],,,148.9127,148.9127,[],[],
﻿,,,[],41,[],[],,1,[1],,SESSION,,[],,151.5933,38,,,yellow,,,,,,[-98],,[0.59050000000002],5fd979cd5bc47d2522d06e18,,,"[""Memory"",""Memory""]",,,,2024.2.4,,poly_1_surprise_relavent,,2025-04-09_21h52.03.816,,,,2025-04-09_21h52.57.245,,,152.1839,,,resources/pots/yellow_green.jpg,0,38,,,[],green,,152.1839,,,,,,"[""poly_1"",""poly_1""]",,[0],1,[1],,poly_1,149.5934,,,,,,,,292064,,,,,test3103025,Win32,153.2741,[0],,[-92],[1.090200000286103],151.5933,,test,[0],,,poly_1_train,flower,147.0588235,[0],,292064,[1],English,,,poly_1_surprise,,[-127],,[-97],,,,[],,,151.5933,151.5934,[],[],
﻿,,,[],1,[],[],,1,[],,SESSION,,[],,155.2744,39,,,yellow,,,,,,[],,[0.45819999980926696],5fd979cd5bc47d2522d06e18,,,[],,,,2024.2.4,,poly_1_surprise_relavent,,2025-04-09_21h52.03.816,,,,2025-04-09_21h52.57.245,,,155.7328,,,resources/pots/yellow_green.jpg,0,39,,,[],green,,155.7328,,,,,,"[""poly_1"",""poly_1""]",,[0],1,[1],,poly_1,153.2743,,,,,,,,292064,,,,,test3103025,Win32,155.7329,[0],,[-105],[],155.2744,,test,[],,,poly_1_train,flower,147.0588235,[],,292064,[1],English,,,poly_1_surprise,,[],,[-132],,,,[],,,155.2744,155.2744,[],[],
﻿,,,[],13,[],[],,1,[],,SESSION,,[],,157.7322,40,,,green,,,,,,[],,[0.6248000001907315],5fd979cd5bc47d2522d06e18,,,[],,,,2024.2.4,,poly_3_surprise_relavent,,2025-04-09_21h52.03.816,,,,2025-04-09_21h52.57.245,,,158.3572,,,resources/pots/green_deepblue.jpg,0,40,,,[],deepblue,,158.3572,,,,,,"[""poly_3"",""poly_3""]",,[0],1,[1],,poly_3,155.7331,,,,,,,,292064,,,,,test3103025,Win32,158.3572,[0],,[-118],[],157.7322,,test,[],,,poly_3_train,flower,147.0588235,[],,292064,[1],English,,,poly_3_surprise,,[],,[332],,,,[],,,157.7322,157.7323,[],[],
﻿,,,[],11,[],[],,1,[],,SESSION,,[],,160.3574,41,,,green,,,,,,[],,[0.430499999999995],5fd979cd5bc47d2522d06e18,,,[],,,,2024.2.4,,poly_0_surprise_relavent,,2025-04-09_21h52.03.816,,,,2025-04-09_21h52.57.245,,,160.7881,,,resources/pots/green_orange.jpg,0,41,,,[],orange,,160.7881,,,,,,"[""poly_3"",""poly_3""]",,[0],1,[1],,poly_3,158.3574,,,,,,,,292064,,,,,test3103025,Win32,160.7881,[0],,[-117],[],160.3574,,test,[],,,poly_3_train,flower,147.0588235,[],,292064,[1],English,,,poly_3_surprise,,[],,[327],,,,[],,,160.3575,160.3575,[],[],
﻿,,,,,,,[0],,,[0],SESSION,,,160.7938,,,[1],,lightblue,,,[-304],,[1],,"[""poly_2_surprise_relavent"",""poly_2_surprise_relavent""]",,5fd979cd5bc47d2522d06e18,0,,,[109],,[304],2024.2.4,,poly_2_surprise_relavent,"[""Guess"",""Guess""]",2025-04-09_21h52.03.816,162.7953,[0],,2025-04-09_21h52.57.245,[0],[1.6525000000000034],,[-103],0,resources/pots/lightblue_orange.jpg,,,,0,,orange,,,,,,167.6987,,,[0],,1,,3,poly_0,,,170.5246,[-106],,166.0457,,[1],292064,,,[0],,test3103025,Win32,,,[-103],,,,162.7955,test,,,"[""poly_3_surprise"",""poly_3_surprise""]",poly_0_train,vase,147.0588235,,[1],292064,,English,1,,poly_0_surprise,,,[3.2500999999046485],,166.0458,,167.6988,,,[2.8253000001907367],,,,,[0]
﻿,,,,,,,[0],,,[0],SESSION,,,170.5251,,,[1],,lightblue,,,[100],,[1],,"[""poly_2_surprise_relavent"",""poly_2_surprise_relavent""]",,5fd979cd5bc47d2522d06e18,0,,,[102],,[100],2024.2.4,,poly_2_surprise_relavent,"[""Intuition"",""Intuition""]",2025-04-09_21h52.03.816,172.5247,[0],,2025-04-09_21h52.57.245,[0],[1.097099999904657],,[-100],1,resources/pots/lightblue_orange.jpg,,,,1,,orange,,,,,,175.6709,,,[0],,1,,1,poly_0,,,177.8517,[-102],,174.5735,,[1],292064,,,[0],,test3103025,Win32,,,[-100],,,,172.5248,test,,,"[""poly_2_surprise"",""poly_2_surprise""]",poly_0_train,vase,147.0588235,,[1],292064,,English,1,,poly_0_surprise,,,[2.0487000002860896],,174.5737,,175.671,,,[2.1806999998092635],,,,,[0]
﻿,,,,,,,[0],,,[0],SESSION,,,177.8519,,,[1],,red,,,[-114],,[1],,"[""poly_0_surprise_relavent"",""poly_0_surprise_relavent""]",,5fd979cd5bc47d2522d06e18,0,,,[-308],,[97],2024.2.4,,poly_0_surprise_relavent,"[""Memory"",""Memory""]",2025-04-09_21h52.03.816,179.851,[0],,2025-04-09_21h52.57.245,[1],[1.257100000381456],,[-97],2,resources/pots/red_purple.jpg,,,,2,,purple,,,,,,182.3376,,,[0],,1,,2,poly_2,,,183.678,[-106],,181.0804,,[1],292064,,,[0],,test3103025,Win32,,,[-88],,,,179.8511,test,,,"[""poly_2_surprise"",""poly_2_surprise""]",poly_2_train,vase,147.0588235,,[1],292064,,English,1,,poly_2_surprise,,,[1.229299999713902],,181.0804,,182.3376,,,[1.340299999713892],,,,,[0]
﻿,,,,,,,[0],,,[0],SESSION,,,183.6782,,,[1],,yellow,,,[-98],,[1],,"[""poly_1_surprise_relavent"",""poly_1_surprise_relavent""]",,5fd979cd5bc47d2522d06e18,0,,,[-101],,[-100],2024.2.4,,poly_1_surprise_relavent,"[""Memory"",""Memory""]",2025-04-09_21h52.03.816,185.6781,[0],,2025-04-09_21h52.57.245,[1],[0.9583999996185355],,[-102],3,resources/pots/yellow_green.jpg,,,,3,,green,,,,,,187.8174,,,[0],,1,,0,poly_1,,,188.9493,[-98],,186.859,,[1],292064,,,[0],,test3103025,Win32,,,[-105],,,,185.6782,test,,,"[""poly_1_surprise"",""poly_1_surprise""]",poly_1_train,vase,147.0588235,,[1],292064,,English,1,,poly_1_surprise,,,[1.1806999998092635],,186.859,,187.8175,,,[1.1317999997139054],,,,,[0]
﻿191.89419999980925,,,,,,,,,,,SESSION,,,,,,,,,,,,,,,,,5fd979cd5bc47d2522d06e18,,,,,,,2024.2.4,,,,2025-04-09_21h52.03.816,,,188.9494,2025-04-09_21h52.57.245,,,,,,,,,,,,,,,,,,,,,,,,,,,,,,,,,,,292064,,,,,test3103025,Win32,,,,,,,,test,,,,,,147.0588235,,,292064,,English,,,,,,,,,,,,,,,,,,
﻿,,8.4797,,,,,,,,,SESSION,,,,,,,,,,,,,,,,,5e47a5ae418f6125620ee944,,,,,,,2024.2.4,,,,2025-04-09_21h52.48.485,,,,2025-04-09_21h53.34.434,,,,,,,,,,,,,,,,,,,,,,,,,,,,,,,,,0.0004,,351990,,,,,test3103025,Win32,,,,,,,,test,,,,,,144.9275362,,,351990,,English,,,,,,,,,,,,,,,,,,
﻿,,,,,,,,,,,SESSION,[5.181800000004472],,,,,,3,green,"[""poly_3_train"",""poly_3_train""]",[1],,0,,,,,5e47a5ae418f6125620ee944,,[1],,,[-93],,2024.2.4,,poly_2_surprise_relavent,,2025-04-09_21h52.48.485,,,,2025-04-09_21h53.34.434,,,,,,resources/pots/green_purple.jpg,,,10.5284,,,purple,,,8.5301,15.7146,0,,,,,,1,,,poly_3,,15.7142,,,10.5288,,,,351990,[0],15.7138,,1,test3103025,Win32,,,,,,,,test,,[0],,poly_3_train,flower,144.9275362,,,351990,,English,,[267],poly_3_surprise,,,,,,0,,,,,,,,,
﻿,,,,,,,,,,,SESSION,[0.6830999999940275],,,,,,6,lightblue,"[""poly_2_train"",""poly_2_train""]",[1],,0,,,,,5e47a5ae418f6125620ee944,,[1],,,[-98],,2024.2.4,,poly_0_surprise_relavent,,2025-04-09_21h52.48.485,,,,2025-04-09_21h53.34.434,,,,,,resources/pots/lightblue_orange.jpg,,,17.7123,,,orange,,,15.7151,18.3959,1,,,,,,1,,,poly_2,,18.3959,,,17.7125,,,,351990,[0],18.3958,,1,test3103025,Win32,,,,,,,,test,,[0],,poly_2_train,flower,144.9275362,,,351990,,English,,[114],poly_2_surprise,,,,,,1,,,,,,,,,
﻿,,,,,,,,,,,SESSION,[0.785100000001492],,,,,,1,red,"[""poly_0_train"",""poly_0_train""]",[1],,0,,,,,5e47a5ae418f6125620ee944,,[1],,,[-100],,2024.2.4,,poly_3_surprise_relavent,,2025-04-09_21h52.48.485,,,,2025-04-09_21h53.34.434,,,,,,resources/pots/red_deepblue.jpg,,,20.3958,,,deepblue,,,18.3963,21.1816,2,,,,,,1,,,poly_0,,21.1815,,,20.3959,,,,351990,[0],21.1812,,1,test3103025,Win32,,,,,,,,test,,[0],,poly_0_train,flower,144.9275362,,,351990,,English,,[-271],poly_0_surprise,,,,,,2,,,,,,,,,
﻿,,,,,,,,,,,SESSION,[0.41689999999852034],,,,,,8,red,"[""poly_0_train"",""poly_0_train""]",[1],,0,,,,,5e47a5ae418f6125620ee944,,[1],,,[-99],,2024.2.4,,poly_1_surprise_relavent,,2025-04-09_21h52.48.485,,,,2025-04-09_21h53.34.434,,,,,,resources/pots/red_green.jpg,,,23.1814,,,green,,,21.182,23.5989,3,,,,,,1,,,poly_0,,23.5988,,,23.1816,,,,351990,[0],23.5986,,1,test3103025,Win32,,,,,,,,test,,[0],,poly_0_train,flower,144.9275362,,,351990,,English,,[-271],poly_0_surprise,,,,,,3,,,,,,,,,
﻿,,,,,,,,,,,SESSION,[],,,,,,0,green,[],[],,0,,,,,5e47a5ae418f6125620ee944,,[],,,[],,2024.2.4,,poly_2_surprise_relavent,,2025-04-09_21h52.48.485,,,,2025-04-09_21h53.34.434,,,,,,resources/pots/green_purple.jpg,,,23.5993,,,purple,,,23.5993,23.5996,4,,,,,,1,,,poly_3,,23.5996,,,23.5994,,,,351990,[],23.5995,,1,test3103025,Win32,,,,,,,,test,,[],,poly_3_train,flower,144.9275362,,,351990,,English,,[],poly_3_surprise,,,,,,4,,,,,,,,,
﻿,,,,,,,,,,,SESSION,[],,,,,,7,yellow,[],[],,0,,,,,5e47a5ae418f6125620ee944,,[],,,[],,2024.2.4,,poly_3_surprise_relavent,,2025-04-09_21h52.48.485,,,,2025-04-09_21h53.34.434,,,,,,resources/pots/yellow_deepblue.jpg,,,23.5998,,,deepblue,,,23.5998,23.6002,5,,,,,,1,,,poly_1,,23.6002,,,23.6,,,,351990,[],23.6,,1,test3103025,Win32,,,,,,,,test,,[],,poly_1_train,flower,144.9275362,,,351990,,English,,[],poly_1_surprise,,,,,,5,,,,,,,,,
﻿,,,,,,,,,,,SESSION,[],,,,,,4,green,[],[],,0,,,,,5e47a5ae418f6125620ee944,,[],,,[],,2024.2.4,,poly_2_surprise_relavent,,2025-04-09_21h52.48.485,,,,2025-04-09_21h53.34.434,,,,,,resources/pots/green_purple.jpg,,,23.6005,,,purple,,,23.6005,23.6008,6,,,,,,1,,,poly_3,,23.6008,,,23.6006,,,,351990,[],23.6007,,1,test3103025,Win32,,,,,,,,test,,[],,poly_3_train,flower,144.9275362,,,351990,,English,,[],poly_3_surprise,,,,,,6,,,,,,,,,
﻿,,,,,,,,,,,SESSION,[],,,,,,9,yellow,[],[],,0,,,,,5e47a5ae418f6125620ee944,,[],,,[],,2024.2.4,,poly_1_surprise_relavent,,2025-04-09_21h52.48.485,,,,2025-04-09_21h53.34.434,,,,,,resources/pots/yellow_green.jpg,,,23.6012,,,green,,,23.6011,23.6013,7,,,,,,1,,,poly_1,,23.6013,,,23.6012,,,,351990,[],23.6012,,1,test3103025,Win32,,,,,,,,test,,[],,poly_1_train,flower,144.9275362,,,351990,,English,,[],poly_1_surprise,,,,,,7,,,,,,,,,
﻿,,,,,,,,,,,SESSION,[],,,,,,5,red,[],[],,0,,,,,5e47a5ae418f6125620ee944,,[],,,[],,2024.2.4,,poly_2_surprise_relavent,,2025-04-09_21h52.48.485,,,,2025-04-09_21h53.34.434,,,,,,resources/pots/red_purple.jpg,,,23.6016,,,purple,,,23.6016,23.6019,8,,,,,,1,,,poly_0,,23.6019,,,23.6017,,,,351990,[],23.6017,,1,test3103025,Win32,,,,,,,,test,,[],,poly_0_train,flower,144.9275362,,,351990,,English,,[],poly_0_surprise,,,,,,8,,,,,,,,,
﻿,,,,,,,,,,,SESSION,[],,,,,,2,yellow,[],[],,0,,,,,5e47a5ae418f6125620ee944,,[],,,[],,2024.2.4,,poly_0_surprise_relavent,,2025-04-09_21h52.48.485,,,,2025-04-09_21h53.34.434,,,,,,resources/pots/yellow_orange.jpg,,,23.6022,,,orange,,,23.6022,23.6024,9,,,,,,1,,,poly_1,,23.6023,,,23.6022,,,,351990,[],23.6022,,1,test3103025,Win32,,,,,,,,test,,[],,poly_1_train,flower,144.9275362,,,351990,,English,,[],poly_1_surprise,,,,,,9,,,,,,,,,
﻿,23.6026,,,,,,,,,,SESSION,,,,,,,,,,,,,,,,,5e47a5ae418f6125620ee944,,,,,,,2024.2.4,,,,2025-04-09_21h52.48.485,,,,2025-04-09_21h53.34.434,,,,,,,,,,,,,3.0666,,,,,,,,,,,,,,,,,,,,,,351990,,,,,test3103025,Win32,,,,,,,,test,,,,,,144.9275362,,,351990,,English,,,,space,,,,,,,,26.7003,,,,,,
﻿,,,[],19,[],[],,1,[1],,SESSION,,[],,28.7316,0,,,red,,,,,,[-113],,[0.5317999999970198],5e47a5ae418f6125620ee944,,,"[""Intuition"",""Intuition""]",,,,2024.2.4,,poly_2_surprise_relavent,,2025-04-09_21h52.48.485,,,,2025-04-09_21h53.34.434,,,29.2656,,,resources/pots/red_purple.jpg,0,0,,,[],purple,,29.2659,,,,,,"[""poly_0"",""poly_0""]",,[0],1,[1],,poly_0,26.7312,,,,,,,,351990,,,,,test3103025,Win32,35.8327,[0],,[-98],[6.5660000000000025],28.7317,,test,[0],,,poly_0_train,flower,144.9275362,[0],,351990,[1],English,,,poly_0_surprise,,[97],,[-270],,,,[],,,28.7322,28.7324,[],[],
﻿,,,[],17,[],[],,1,[],,SESSION,,[],,37.8322,1,,,green,,,,,,[],,[0.8167000000029816],5e47a5ae418f6125620ee944,,,[],,,,2024.2.4,,poly_3_surprise_relavent,,2025-04-09_21h52.48.485,,,,2025-04-09_21h53.34.434,,,38.6492,,,resources/pots/green_deepblue.jpg,0,1,,,[],deepblue,,38.6493,,,,,,"[""poly_3"",""poly_3""]",,[0],1,[1],,poly_3,35.8331,,,,,,,,351990,,,,,test3103025,Win32,38.6494,[0],,[-112],[],37.8323,,test,[],,,poly_3_train,flower,144.9275362,[],,351990,[1],English,,,poly_3_surprise,,[],,[296],,,,[],,,37.8324,37.8324,[],[],
﻿,,,[],26,[],[],,1,[],,SESSION,,[],,40.6494,2,,,green,,,,,,[],,[0.49939999999851636],5e47a5ae418f6125620ee944,,,[],,,,2024.2.4,,poly_0_surprise_relavent,,2025-04-09_21h52.48.485,,,,2025-04-09_21h53.34.434,,,41.1491,,,resources/pots/green_orange.jpg,0,2,,,[],orange,,41.1492,,,,,,"[""poly_3"",""poly_3""]",,[0],1,[1],,poly_3,38.6498,,,,,,,,351990,,,,,test3103025,Win32,41.1492,[0],,[-112],[],40.6494,,test,[],,,poly_3_train,flower,144.9275362,[],,351990,[1],English,,,poly_3_surprise,,[],,[296],,,,[],,,40.6495,40.6496,[],[],
﻿,,,[],36,[],[],,1,[],,SESSION,,[],,43.149,3,,,green,,,,,,[],,[0.3501000000014898],5e47a5ae418f6125620ee944,,,[],,,,2024.2.4,,poly_3_surprise_relavent,,2025-04-09_21h52.48.485,,,,2025-04-09_21h53.34.434,,,43.4992,,,resources/pots/green_deepblue.jpg,0,3,,,[],deepblue,,43.4993,,,,,,"[""poly_3"",""poly_3""]",,[0],1,[1],,poly_3,41.1495,,,,,,,,351990,,,,,test3103025,Win32,43.4994,[0],,[-112],[],43.149,,test,[],,,poly_3_train,flower,144.9275362,[],,351990,[1],English,,,poly_3_surprise,,[],,[296],,,,[],,,43.1491,43.1491,[],[],
﻿,,,[],12,[],[],,1,[1],,SESSION,,[],,45.5144,4,,,green,,,,,,[-105],,[0.45159999999404477],5e47a5ae418f6125620ee944,,,"[""Memory"",""Memory""]",,,,2024.2.4,,poly_0_surprise_relavent,,2025-04-09_21h52.48.485,,,,2025-04-09_21h53.34.434,,,45.9664,,,resources/pots/green_orange.jpg,0,4,,,[],orange,,45.9665,,,,,,"[""poly_3"",""poly_3""]",,[0],1,[1],,poly_3,43.4998,,,,,,,,351990,,,,,test3103025,Win32,51.1666,[0],,[-112],[5.200000000000003],45.5145,,test,[0],,,poly_3_train,flower,144.9275362,[0],,351990,[1],English,,,poly_3_surprise,,[-127],,[296],,,,[],,,45.5146,45.5146,[],[],
﻿,,,[],8,[],[],,1,[],,SESSION,,[],,53.1833,5,,,red,,,,,,[],,[0.6648999999985108],5e47a5ae418f6125620ee944,,,[],,,,2024.2.4,,poly_1_surprise_relavent,,2025-04-09_21h52.48.485,,,,2025-04-09_21h53.34.434,,,53.8486,,,resources/pots/red_green.jpg,0,5,,,[],green,,53.8487,,,,,,"[""poly_0"",""poly_0""]",,[0],1,[1],,poly_0,51.167,,,,,,,,351990,,,,,test3103025,Win32,53.8488,[0],,[-112],[],53.1833,,test,[],,,poly_0_train,flower,144.9275362,[],,351990,[1],English,,,poly_0_surprise,,[],,[-287],,,,[],,,53.1834,53.1835,[],[],
﻿,,,[],7,[],[],,1,[],,SESSION,,[],,55.8502,6,,,yellow,,,,,,[],,[0.5333999999985082],5e47a5ae418f6125620ee944,,,[],,,,2024.2.4,,poly_3_surprise_relavent,,2025-04-09_21h52.48.485,,,,2025-04-09_21h53.34.434,,,56.384,,,resources/pots/yellow_deepblue.jpg,0,6,,,[],deepblue,,56.384,,,,,,"[""poly_1"",""poly_1""]",,[0],1,[1],,poly_1,53.8492,,,,,,,,351990,,,,,test3103025,Win32,56.3841,[0],,[-114],[],55.8502,,test,[],,,poly_1_train,flower,144.9275362,[],,351990,[1],English,,,poly_1_surprise,,[],,[-127],,,,[],,,55.8503,55.8504,[],[],
﻿,,,[],41,[],[],,1,[1],,SESSION,,[],,58.3831,7,,,lightblue,,,,,,[-98],,[0.6845999999940489],5e47a5ae418f6125620ee944,,,"[""Memory"",""Memory""]",,,,2024.2.4,,poly_1_surprise_relavent,,2025-04-09_21h52.48.485,,,,2025-04-09_21h53.34.434,,,59.0678,,,resources/pots/lightblue_green.jpg,0,7,,,[],green,,59.0679,,,,,,"[""poly_2"",""poly_2""]",,[0],1,[1],,poly_2,56.3845,,,,,,,,351990,,,,,test3103025,Win32,60.0675,[0],,[-110],[0.9994999999999976],58.3831,,test,[0],,,poly_2_train,flower,144.9275362,[0],,351990,[1],English,,,poly_2_surprise,,[-88],,[71],,,,[],,,58.3831,58.3832,[],[],
﻿,,,[],15,[],[],,1,[],,SESSION,,[],,62.067,8,,,lightblue,,,,,,[],,[0.6502000000029824],5e47a5ae418f6125620ee944,,,[],,,,2024.2.4,,poly_2_surprise_relavent,,2025-04-09_21h52.48.485,,,,2025-04-09_21h53.34.434,,,62.7175,,,resources/pots/lightblue_purple.jpg,0,8,,,[],purple,,62.7176,,,,,,"[""poly_2"",""poly_2""]",,[0],1,[1],,poly_2,60.0679,,,,,,,,351990,,,,,test3103025,Win32,62.7176,[0],,[-121],[],62.0671,,test,[],,,poly_2_train,flower,144.9275362,[],,351990,[1],English,,,poly_2_surprise,,[],,[102],,,,[],,,62.0671,62.0673,[],[],
﻿,,,[],11,[],[],,1,[],,SESSION,,[],,64.7169,9,,,yellow,,,,,,[],,[0.6007999999970224],5e47a5ae418f6125620ee944,,,[],,,,2024.2.4,,poly_1_surprise_relavent,,2025-04-09_21h52.48.485,,,,2025-04-09_21h53.34.434,,,65.318,,,resources/pots/yellow_green.jpg,0,9,,,[],green,,65.318,,,,,,"[""poly_1"",""poly_1""]",,[0],1,[1],,poly_1,62.718,,,,,,,,351990,,,,,test3103025,Win32,65.3182,[0],,[-116],[],64.7169,,test,[],,,poly_1_train,flower,144.9275362,[],,351990,[1],English,,,poly_1_surprise,,[],,[-62],,,,[],,,64.717,64.7171,[],[],
﻿,,,[],31,[],[],,1,[],,SESSION,,[],,67.3173,10,,,yellow,,,,,,[],,[0.4667000000029873],5e47a5ae418f6125620ee944,,,[],,,,2024.2.4,,poly_1_surprise_relavent,,2025-04-09_21h52.48.485,,,,2025-04-09_21h53.34.434,,,67.7841,,,resources/pots/yellow_green.jpg,0,10,,,[],green,,67.7842,,,,,,"[""poly_1"",""poly_1""]",,[0],1,[1],,poly_1,65.3185,,,,,,,,351990,,,,,test3103025,Win32,67.7843,[0],,[-116],[],67.3173,,test,[],,,poly_1_train,flower,144.9275362,[],,351990,[1],English,,,poly_1_surprise,,[],,[-63],,,,[],,,67.3173,67.3174,[],[],
﻿,,,[],24,[],[],,1,[],,SESSION,,[],,69.7841,11,,,yellow,,,,,,[],,[0.31680000000446285],5e47a5ae418f6125620ee944,,,[],,,,2024.2.4,,poly_3_surprise_relavent,,2025-04-09_21h52.48.485,,,,2025-04-09_21h53.34.434,,,70.1011,,,resources/pots/yellow_deepblue.jpg,0,11,,,[],deepblue,,70.1012,,,,,,"[""poly_1"",""poly_1""]",,[0],1,[1],,poly_1,67.7847,,,,,,,,351990,,,,,test3103025,Win32,70.1013,[0],,[-116],[],69.7841,,test,[],,,poly_1_train,flower,144.9275362,[],,351990,[1],English,,,poly_1_surprise,,[],,[-63],,,,[],,,69.7841,69.7843,[],[],
﻿,,,[],34,[],[],,1,[],,SESSION,,[],,72.1011,12,,,red,,,,,,[],,[0.5663999999985094],5e47a5ae418f6125620ee944,,,[],,,,2024.2.4,,poly_1_surprise_relavent,,2025-04-09_21h52.48.485,,,,2025-04-09_21h53.34.434,,,72.6682,,,resources/pots/red_green.jpg,0,12,,,[],green,,72.6682,,,,,,"[""poly_0"",""poly_0""]",,[0],1,[1],,poly_0,70.1019,,,,,,,,351990,,,,,test3103025,Win32,72.6684,[0],,[-108],[],72.1012,,test,[],,,poly_0_train,flower,144.9275362,[],,351990,[1],English,,,poly_0_surprise,,[],,[-282],,,,[],,,72.1013,72.1015,[],[],
﻿,,,[],29,[],[],,1,[1],,SESSION,,[],,74.668,13,,,green,,,,,,[-107],,[0.8166999999955351],5e47a5ae418f6125620ee944,,,"[""Memory"",""Memory""]",,,,2024.2.4,,poly_0_surprise_relavent,,2025-04-09_21h52.48.485,,,,2025-04-09_21h53.34.434,,,75.4849,,,resources/pots/green_orange.jpg,0,13,,,[],orange,,75.485,,,,,,"[""poly_3"",""poly_3""]",,[0],1,[1],,poly_3,72.6688,,,,,,,,351990,,,,,test3103025,Win32,77.2515,[0],,[-111],[1.766200000002982],74.668,,test,[0],,,poly_3_train,flower,144.9275362,[0],,351990,[1],English,,,poly_3_surprise,,[-78],,[259],,,,[],,,74.6681,74.6682,[],[],
﻿,,,[],40,[],[],,1,[],,SESSION,,[],,79.2513,14,,,green,,,,,,[],,[1.0171000000014772],5e47a5ae418f6125620ee944,,,[],,,,2024.2.4,,poly_2_surprise_relavent,,2025-04-09_21h52.48.485,,,,2025-04-09_21h53.34.434,,,80.2687,,,resources/pots/green_purple.jpg,0,14,,,[],purple,,80.2687,,,,,,"[""poly_3"",""poly_3""]",,[0],1,[1],,poly_3,77.2519,,,,,,,,351990,,,,,test3103025,Win32,80.2687,[0],,[-105],[],79.2513,,test,[],,,poly_3_train,flower,144.9275362,[],,351990,[1],English,,,poly_3_surprise,,[],,[285],,,,[],,,79.2514,79.2514,[],[],
﻿,,,[],38,[],[],,1,[],,SESSION,,[],,82.2679,15,,,lightblue,,,,,,[],,[0.45069999999552124],5e47a5ae418f6125620ee944,,,[],,,,2024.2.4,,poly_2_surprise_relavent,,2025-04-09_21h52.48.485,,,,2025-04-09_21h53.34.434,,,82.719,,,resources/pots/lightblue_purple.jpg,0,15,,,[],purple,,82.719,,,,,,"[""poly_2"",""poly_2""]",,[0],1,[1],,poly_2,80.2693,,,,,,,,351990,,,,,test3103025,Win32,82.719,[0],,[-100],[],82.2679,,test,[],,,poly_2_train,flower,144.9275362,[],,351990,[1],English,,,poly_2_surprise,,[],,[68],,,,[],,,82.2679,82.268,[],[],
﻿,,,[],10,[],[],,1,[],,SESSION,,[],,84.7186,16,,,green,,,,,,[],,[0.4824999999999875],5e47a5ae418f6125620ee944,,,[],,,,2024.2.4,,poly_0_surprise_relavent,,2025-04-09_21h52.48.485,,,,2025-04-09_21h53.34.434,,,85.2013,,,resources/pots/green_orange.jpg,0,16,,,[],orange,,85.2013,,,,,,"[""poly_3"",""poly_3""]",,[0],1,[1],,poly_3,82.7194,,,,,,,,351990,,,,,test3103025,Win32,85.2015,[0],,[-93],[],84.7187,,test,[],,,poly_3_train,flower,144.9275362,[],,351990,[1],English,,,poly_3_surprise,,[],,[335],,,,[],,,84.7187,84.7187,[],[],
﻿,,,[],9,[],[],,1,[],,SESSION,,[],,87.2015,17,,,yellow,,,,,,[],,[0.5833999999985053],5e47a5ae418f6125620ee944,,,[],,,,2024.2.4,,poly_1_surprise_relavent,,2025-04-09_21h52.48.485,,,,2025-04-09_21h53.34.434,,,87.7851,,,resources/pots/yellow_green.jpg,0,17,,,[],green,,87.7853,,,,,,"[""poly_1"",""poly_1""]",,[0],1,[1],,poly_1,85.2016,,,,,,,,351990,,,,,test3103025,Win32,87.7854,[0],,[-104],[],87.2015,,test,[],,,poly_1_train,flower,144.9275362,[],,351990,[1],English,,,poly_1_surprise,,[],,[-74],,,,[],,,87.2016,87.2016,[],[],
﻿,,,[],27,[],[],,1,[],,SESSION,,[],,89.769,18,,,red,,,,,,[],,[1.0161999999955356],5e47a5ae418f6125620ee944,,,[],,,,2024.2.4,,poly_1_surprise_relavent,,2025-04-09_21h52.48.485,,,,2025-04-09_21h53.34.434,,,90.7855,,,resources/pots/red_green.jpg,0,18,,,[],green,,90.7855,,,,,,"[""poly_0"",""poly_0""]",,[0],1,[1],,poly_0,87.7859,,,,,,,,351990,,,,,test3103025,Win32,90.7856,[0],,[-105],[],89.7691,,test,[],,,poly_0_train,flower,144.9275362,[],,351990,[1],English,,,poly_0_surprise,,[],,[-280],,,,[],,,89.7692,89.7692,[],[],
﻿,,,[],33,[],[],,1,[],,SESSION,,[],,92.7854,19,,,lightblue,,,,,,[],,[1.050299999997037],5e47a5ae418f6125620ee944,,,[],,,,2024.2.4,,poly_2_surprise_relavent,,2025-04-09_21h52.48.485,,,,2025-04-09_21h53.34.434,,,93.836,,,resources/pots/lightblue_purple.jpg,0,19,,,[],purple,,93.8361,,,,,,"[""poly_2"",""poly_2""]",,[0],1,[1],,poly_2,90.786,,,,,,,,351990,,,,,test3103025,Win32,93.8362,[0],,[-104],[],92.7854,,test,[],,,poly_2_train,flower,144.9275362,[],,351990,[1],English,,,poly_2_surprise,,[],,[73],,,,[],,,92.7854,92.7856,[],[],
﻿,,,[],1,[],[],,1,[],,SESSION,,[],,95.8505,20,,,red,,,,,,[],,[0.5187000000029798],5e47a5ae418f6125620ee944,,,[],,,,2024.2.4,,poly_3_surprise_relavent,,2025-04-09_21h52.48.485,,,,2025-04-09_21h53.34.434,,,96.3696,,,resources/pots/red_deepblue.jpg,0,20,,,[],deepblue,,96.3697,,,,,,"[""poly_0"",""poly_0""]",,[0],1,[1],,poly_0,93.8367,,,,,,,,351990,,,,,test3103025,Win32,96.3697,[0],,[-110],[],95.8506,,test,[],,,poly_0_train,flower,144.9275362,[],,351990,[1],English,,,poly_0_surprise,,[],,[-282],,,,[],,,95.8507,95.8507,[],[],
﻿,,,[0],37,[2.6919000000059725],[1],,1,[1],,SESSION,,[1],,98.3687,21,,,lightblue,,,,,,[-114],,[5.633299999997007],5e47a5ae418f6125620ee944,,,"[""Guess"",""Guess""]",,,,2024.2.4,,poly_0_surprise_relavent,,2025-04-09_21h52.48.485,,,,2025-04-09_21h53.34.434,,,107.7033,,,resources/pots/lightblue_orange.jpg,0,21,,,"[""num_4"",""num_4""]",orange,,107.7034,,,,,,"[""poly_3"",""poly_3""]",,[0],1,[1],,poly_2,96.37,,,,,,,,351990,,,,,test3103025,Win32,109.47,[0],,[-83],[1.766399999998498],98.3687,,test,[0],,,poly_2_train,flower,144.9275362,[0],,351990,[0],English,,,poly_2_surprise,,[-286],,[276],,,,[-82],,,102.0699,102.0699,[117],[0],
﻿,,,[],16,[],[],,1,[],,SESSION,,[],,111.4565,22,,,lightblue,,,,,,[],,[0.7300999999940245],5e47a5ae418f6125620ee944,,,[],,,,2024.2.4,,poly_1_surprise_relavent,,2025-04-09_21h52.48.485,,,,2025-04-09_21h53.34.434,,,112.1869,,,resources/pots/lightblue_green.jpg,0,22,,,[],green,,112.1869,,,,,,"[""poly_2"",""poly_2""]",,[0],1,[1],,poly_2,109.4704,,,,,,,,351990,,,,,test3103025,Win32,112.187,[0],,[-120],[],111.4566,,test,[],,,poly_2_train,flower,144.9275362,[],,351990,[1],English,,,poly_2_surprise,,[],,[91],,,,[],,,111.4566,111.4567,[],[],
﻿,,,[],35,[],[],,1,[],,SESSION,,[],,114.1868,23,,,red,,,,,,[],,[0.633499999999998],5e47a5ae418f6125620ee944,,,[],,,,2024.2.4,,poly_3_surprise_relavent,,2025-04-09_21h52.48.485,,,,2025-04-09_21h53.34.434,,,114.8207,,,resources/pots/red_deepblue.jpg,0,23,,,[],deepblue,,114.8208,,,,,,"[""poly_0"",""poly_0""]",,[0],1,[1],,poly_0,112.1874,,,,,,,,351990,,,,,test3103025,Win32,114.8208,[0],,[-110],[],114.1869,,test,[],,,poly_0_train,flower,144.9275362,[],,351990,[1],English,,,poly_0_surprise,,[],,[-305],,,,[],,,114.1869,114.187,[],[],
﻿,,,[],0,[],[],,1,[1],,SESSION,,[],,116.8202,24,,,green,,,,,,[-104],,[0.783200000002978],5e47a5ae418f6125620ee944,,,"[""Memory"",""Memory""]",,,,2024.2.4,,poly_2_surprise_relavent,,2025-04-09_21h52.48.485,,,,2025-04-09_21h53.34.434,,,117.6037,,,resources/pots/green_purple.jpg,0,24,,,[],purple,,117.6038,,,,,,"[""poly_3"",""poly_3""]",,[0],1,[1],,poly_3,114.8215,,,,,,,,351990,,,,,test3103025,Win32,119.5544,[0],,[-96],[1.9506000000014865],116.8202,,test,[0],,,poly_3_train,flower,144.9275362,[0],,351990,[1],English,,,poly_3_surprise,,[-84],,[318],,,,[],,,116.8203,116.8204,[],[],
﻿,,,[],14,[],[],,1,[],,SESSION,,[],,121.5537,25,,,lightblue,,,,,,[],,[0.6665000000000134],5e47a5ae418f6125620ee944,,,[],,,,2024.2.4,,poly_1_surprise_relavent,,2025-04-09_21h52.48.485,,,,2025-04-09_21h53.34.434,,,122.2205,,,resources/pots/lightblue_green.jpg,0,25,,,[],green,,122.2205,,,,,,"[""poly_2"",""poly_2""]",,[0],1,[1],,poly_2,119.5548,,,,,,,,351990,,,,,test3103025,Win32,122.2206,[0],,[-123],[],121.5537,,test,[],,,poly_2_train,flower,144.9275362,[],,351990,[1],English,,,poly_2_surprise,,[],,[132],,,,[],,,121.5538,121.5539,[],[],
﻿,,,[],30,[],[],,1,[],,SESSION,,[],,124.2206,26,,,yellow,,,,,,[],,[0.4333000000044649],5e47a5ae418f6125620ee944,,,[],,,,2024.2.4,,poly_0_surprise_relavent,,2025-04-09_21h52.48.485,,,,2025-04-09_21h53.34.434,,,124.6541,,,resources/pots/yellow_orange.jpg,0,26,,,[],orange,,124.6542,,,,,,"[""poly_1"",""poly_1""]",,[0],1,[1],,poly_1,122.2209,,,,,,,,351990,,,,,test3103025,Win32,124.6542,[0],,[-124],[],124.2206,,test,[],,,poly_1_train,flower,144.9275362,[],,351990,[1],English,,,poly_1_surprise,,[],,[-124],,,,[],,,124.2207,124.2208,[],[],
﻿,,,[],3,[],[],,1,[1],,SESSION,,[],,126.6538,27,,,green,,,,,,[-115],,[0.5167000000029986],5e47a5ae418f6125620ee944,,,"[""Memory"",""Memory""]",,,,2024.2.4,,poly_2_surprise_relavent,,2025-04-09_21h52.48.485,,,,2025-04-09_21h53.34.434,,,127.1707,,,resources/pots/green_purple.jpg,0,27,,,[],purple,,127.1707,,,,,,"[""poly_3"",""poly_3""]",,[0],1,[1],,poly_3,124.6546,,,,,,,,351990,,,,,test3103025,Win32,128.5046,[0],,[-125],[1.3338999999984935],126.6538,,test,[0],,,poly_3_train,flower,144.9275362,[0],,351990,[1],English,,,poly_3_surprise,,[-62],,[315],,,,[],,,126.6538,126.6539,[],[],
﻿,,,[],21,[],[],,1,[],,SESSION,,[],,130.5027,28,,,yellow,,,,,,[],,[0.6014000000059809],5e47a5ae418f6125620ee944,,,[],,,,2024.2.4,,poly_1_surprise_relavent,,2025-04-09_21h52.48.485,,,,2025-04-09_21h53.34.434,,,131.1042,,,resources/pots/yellow_green.jpg,0,28,,,[],green,,131.1044,,,,,,"[""poly_1"",""poly_1""]",,[0],1,[1],,poly_1,128.505,,,,,,,,351990,,,,,test3103025,Win32,131.1045,[0],,[-119],[],130.5027,,test,[],,,poly_1_train,flower,144.9275362,[],,351990,[1],English,,,poly_1_surprise,,[],,[-127],,,,[],,,130.5028,130.5028,[],[],
﻿,,,[],22,[],[],,1,[],,SESSION,,[],,133.1046,29,,,yellow,,,,,,[],,[0.39959999999405227],5e47a5ae418f6125620ee944,,,[],,,,2024.2.4,,poly_0_surprise_relavent,,2025-04-09_21h52.48.485,,,,2025-04-09_21h53.34.434,,,133.5044,,,resources/pots/yellow_orange.jpg,0,29,,,[],orange,,133.5044,,,,,,"[""poly_1"",""poly_1""]",,[0],1,[1],,poly_1,131.1048,,,,,,,,351990,,,,,test3103025,Win32,133.5045,[0],,[-119],[],133.1046,,test,[],,,poly_1_train,flower,144.9275362,[],,351990,[1],English,,,poly_1_surprise,,[],,[-127],,,,[],,,133.1046,133.1047,[],[],
﻿,,,[],18,[],[],,1,[],,SESSION,,[],,135.506,30,,,red,,,,,,[],,[0.44830000000447967],5e47a5ae418f6125620ee944,,,[],,,,2024.2.4,,poly_3_surprise_relavent,,2025-04-09_21h52.48.485,,,,2025-04-09_21h53.34.434,,,135.9548,,,resources/pots/red_deepblue.jpg,0,30,,,[],deepblue,,135.9549,,,,,,"[""poly_0"",""poly_0""]",,[0],1,[1],,poly_0,133.5049,,,,,,,,351990,,,,,test3103025,Win32,135.955,[0],,[-118],[],135.5061,,test,[],,,poly_0_train,flower,144.9275362,[],,351990,[1],English,,,poly_0_surprise,,[],,[-287],,,,[],,,135.5062,135.5063,[],[],
﻿,,,[],20,[],[],,1,[],,SESSION,,[],,137.9549,31,,,lightblue,,,,,,[],,[0.4497000000029914],5e47a5ae418f6125620ee944,,,[],,,,2024.2.4,,poly_1_surprise_relavent,,2025-04-09_21h52.48.485,,,,2025-04-09_21h53.34.434,,,138.4048,,,resources/pots/lightblue_green.jpg,0,31,,,[],green,,138.4049,,,,,,"[""poly_2"",""poly_2""]",,[0],1,[1],,poly_2,135.9554,,,,,,,,351990,,,,,test3103025,Win32,138.4049,[0],,[-119],[],137.9549,,test,[],,,poly_2_train,flower,144.9275362,[],,351990,[1],English,,,poly_2_surprise,,[],,[139],,,,[],,,137.955,137.955,[],[],
﻿,,,[],4,[],[],,1,[],,SESSION,,[],,140.4048,32,,,green,,,,,,[],,[0.4331000000015024],5e47a5ae418f6125620ee944,,,[],,,,2024.2.4,,poly_2_surprise_relavent,,2025-04-09_21h52.48.485,,,,2025-04-09_21h53.34.434,,,140.8381,,,resources/pots/green_purple.jpg,0,32,,,[],purple,,140.8382,,,,,,"[""poly_3"",""poly_3""]",,[0],1,[1],,poly_3,138.4054,,,,,,,,351990,,,,,test3103025,Win32,140.8383,[0],,[-95],[],140.4049,,test,[],,,poly_3_train,flower,144.9275362,[],,351990,[1],English,,,poly_3_surprise,,[],,[296],,,,[],,,140.4049,140.405,[],[],
﻿,,,[],32,[],[],,1,[],,SESSION,,[],,142.8388,33,,,red,,,,,,[],,[0.46629999999703386],5e47a5ae418f6125620ee944,,,[],,,,2024.2.4,,poly_1_surprise_relavent,,2025-04-09_21h52.48.485,,,,2025-04-09_21h53.34.434,,,143.3055,,,resources/pots/red_green.jpg,0,33,,,[],green,,143.3055,,,,,,"[""poly_0"",""poly_0""]",,[0],1,[1],,poly_0,140.8387,,,,,,,,351990,,,,,test3103025,Win32,143.3056,[0],,[-90],[],142.8389,,test,[],,,poly_0_train,flower,144.9275362,[],,351990,[1],English,,,poly_0_surprise,,[],,[-283],,,,[],,,142.839,142.8392,[],[],
﻿,,,[],13,[],[],,1,[1],,SESSION,,[],,145.3055,34,,,lightblue,,,,,,[-101],,[0.38329999999703546],5e47a5ae418f6125620ee944,,,"[""Memory"",""Memory""]",,,,2024.2.4,,poly_0_surprise_relavent,,2025-04-09_21h52.48.485,,,,2025-04-09_21h53.34.434,,,145.6891,,,resources/pots/lightblue_orange.jpg,0,34,,,[],orange,,145.6892,,,,,,"[""poly_2"",""poly_2""]",,[0],1,[1],,poly_2,143.306,,,,,,,,351990,,,,,test3103025,Win32,146.8557,[0],,[-93],[1.1665000000000134],145.3055,,test,[0],,,poly_2_train,flower,144.9275362,[0],,351990,[1],English,,,poly_2_surprise,,[-72],,[97],,,,[],,,145.3056,145.3057,[],[],
﻿,,,[],2,[],[],,1,[],,SESSION,,[],,148.8552,35,,,yellow,,,,,,[],,[0.43320000000298364],5e47a5ae418f6125620ee944,,,[],,,,2024.2.4,,poly_0_surprise_relavent,,2025-04-09_21h52.48.485,,,,2025-04-09_21h53.34.434,,,149.2889,,,resources/pots/yellow_orange.jpg,0,35,,,[],orange,,149.2889,,,,,,"[""poly_1"",""poly_1""]",,[0],1,[1],,poly_1,146.8563,,,,,,,,351990,,,,,test3103025,Win32,149.289,[0],,[-102],[],148.8552,,test,[],,,poly_1_train,flower,144.9275362,[],,351990,[1],English,,,poly_1_surprise,,[],,[-75],,,,[],,,148.8554,148.8554,[],[],
﻿,,,[],39,[],[],,1,[],,SESSION,,[],,151.2885,36,,,yellow,,,,,,[],,[0.333500000000015],5e47a5ae418f6125620ee944,,,[],,,,2024.2.4,,poly_3_surprise_relavent,,2025-04-09_21h52.48.485,,,,2025-04-09_21h53.34.434,,,151.6222,,,resources/pots/yellow_deepblue.jpg,0,36,,,[],deepblue,,151.6223,,,,,,"[""poly_1"",""poly_1""]",,[0],1,[1],,poly_1,149.2893,,,,,,,,351990,,,,,test3103025,Win32,151.6223,[0],,[-104],[],151.2885,,test,[],,,poly_1_train,flower,144.9275362,[],,351990,[1],English,,,poly_1_surprise,,[],,[-76],,,,[],,,151.2885,151.2886,[],[],
﻿,,,[],28,[],[],,1,[],,SESSION,,[],,153.6225,37,,,lightblue,,,,,,[],,[0.3863999999985026],5e47a5ae418f6125620ee944,,,[],,,,2024.2.4,,poly_2_surprise_relavent,,2025-04-09_21h52.48.485,,,,2025-04-09_21h53.34.434,,,154.0091,,,resources/pots/lightblue_purple.jpg,0,37,,,[],purple,,154.0091,,,,,,"[""poly_2"",""poly_2""]",,[0],1,[1],,poly_2,151.6227,,,,,,,,351990,,,,,test3103025,Win32,154.0093,[0],,[-118],[],153.6226,,test,[],,,poly_2_train,flower,144.9275362,[],,351990,[1],English,,,poly_2_surprise,,[],,[129],,,,[],,,153.6226,153.6226,[],[],
﻿,,,[],5,[],[],,1,[1],,SESSION,,[],,155.9956,38,,,red,,,,,,[-104],,[0.8271000000015079],5e47a5ae418f6125620ee944,,,"[""Memory"",""Memory""]",,,,2024.2.4,,poly_2_surprise_relavent,,2025-04-09_21h52.48.485,,,,2025-04-09_21h53.34.434,,,156.8229,,,resources/pots/red_purple.jpg,0,38,,,[],purple,,156.8229,,,,,,"[""poly_0"",""poly_0""]",,[0],1,[1],,poly_0,154.0096,,,,,,,,351990,,,,,test3103025,Win32,158.288,[0],,[-97],[1.4648999999985222],155.9956,,test,[0],,,poly_0_train,flower,144.9275362,[0],,351990,[1],English,,,poly_0_surprise,,[-126],,[-273],,,,[],,,155.9957,155.9958,[],[],
﻿,,,[],25,[],[],,1,[],,SESSION,,[],,160.2728,39,,,red,,,,,,[],,[0.4501000000014699],5e47a5ae418f6125620ee944,,,[],,,,2024.2.4,,poly_3_surprise_relavent,,2025-04-09_21h52.48.485,,,,2025-04-09_21h53.34.434,,,160.7232,,,resources/pots/red_deepblue.jpg,0,39,,,[],deepblue,,160.7232,,,,,,"[""poly_0"",""poly_0""]",,[0],1,[1],,poly_0,158.2885,,,,,,,,351990,,,,,test3103025,Win32,160.7233,[0],,[-96],[],160.2728,,test,[],,,poly_0_train,flower,144.9275362,[],,351990,[1],English,,,poly_0_surprise,,[],,[-268],,,,[],,,160.2729,160.273,[],[],
﻿,,,[],23,[],[],,1,[],,SESSION,,[],,162.7229,40,,,green,,,,,,[],,[0.9010000000000105],5e47a5ae418f6125620ee944,,,[],,,,2024.2.4,,poly_3_surprise_relavent,,2025-04-09_21h52.48.485,,,,2025-04-09_21h53.34.434,,,163.6241,,,resources/pots/green_deepblue.jpg,0,40,,,[],deepblue,,163.6242,,,,,,"[""poly_3"",""poly_3""]",,[0],1,[1],,poly_3,160.7237,,,,,,,,351990,,,,,test3103025,Win32,163.6244,[0],,[-78],[],162.7229,,test,[],,,poly_3_train,flower,144.9275362,[],,351990,[1],English,,,poly_3_surprise,,[],,[272],,,,[],,,162.723,162.7231,[],[],
﻿,,,[],6,[],[],,1,[],,SESSION,,[],,165.6227,41,,,lightblue,,,,,,[],,[0.4338000000044815],5e47a5ae418f6125620ee944,,,[],,,,2024.2.4,,poly_0_surprise_relavent,,2025-04-09_21h52.48.485,,,,2025-04-09_21h53.34.434,,,166.0567,,,resources/pots/lightblue_orange.jpg,0,41,,,[],orange,,166.0568,,,,,,"[""poly_2"",""poly_2""]",,[0],1,[1],,poly_2,163.6249,,,,,,,,351990,,,,,test3103025,Win32,166.0569,[0],,[-85],[],165.6227,,test,[],,,poly_2_train,flower,144.9275362,[],,351990,[1],English,,,poly_2_surprise,,[],,[86],,,,[],,,165.6228,165.6229,[],[],
﻿,,,,,,,[0],,,[0],SESSION,,,166.0814,,,[1],,lightblue,,,[286],,[1],,"[""poly_2_surprise_relavent"",""poly_2_surprise_relavent""]",,5e47a5ae418f6125620ee944,0,,,[69],,[84],2024.2.4,,poly_2_surprise_relavent,"[""Other"",""Other""]",2025-04-09_21h52.48.485,168.0729,[0],,2025-04-09_21h53.34.434,[1],[3.849299999997015],,[-80],0,resources/pots/lightblue_purple.jpg,,,,0,,purple,,,,,,172.1905,,,[0],,1,,1,poly_2,,,180.9085,[-106],,168.3401,,[1],351990,,,[0],,test3103025,Win32,,,[-86],,,,168.073,test,,,"[""poly_2_surprise"",""poly_2_surprise""]",poly_2_train,vase,144.9275362,,[1],351990,,English,1,,poly_2_surprise,,,[0.26689999999851466],,168.3403,,172.1907,,,[8.716999999999985],,,,,[0]
﻿,,,,,,,[0],,,[0],SESSION,,,180.9089,,,[1],,green,,,[-82],,[1],,"[""poly_3_surprise_relavent"",""poly_3_surprise_relavent""]",,5e47a5ae418f6125620ee944,0,,,[292],,[-274],2024.2.4,,poly_3_surprise_relavent,"[""Memory"",""Memory""]",2025-04-09_21h52.48.485,182.9074,[0],,2025-04-09_21h53.34.434,[0],[2.6333999999985167],,[-85],1,resources/pots/green_deepblue.jpg,,,,1,,deepblue,,,,,,188.4746,,,[0],,1,,2,poly_3,,,191.8065,[-100],,185.8409,,[1],351990,,,[0],,test3103025,Win32,,,[-94],,,,182.9076,test,,,"[""poly_0_surprise"",""poly_0_surprise""]",poly_3_train,vase,144.9275362,,[1],351990,,English,1,,poly_3_surprise,,,[2.9331999999955087],,185.841,,188.4747,,,[3.3316999999955215],,,,,[0]
﻿,,,,,,,[0],,,[0],SESSION,,,191.8069,,,[1],,lightblue,,,[-101],,[1],,"[""poly_2_surprise_relavent"",""poly_2_surprise_relavent""]",,5e47a5ae418f6125620ee944,0,,,[53],,[-288],2024.2.4,,poly_2_surprise_relavent,"[""Memory"",""Memory""]",2025-04-09_21h52.48.485,193.808,[0],,2025-04-09_21h53.34.434,[1],[1.4668000000044685],,[-91],2,resources/pots/lightblue_orange.jpg,,,,2,,orange,,,,,,196.9757,,,[0],,1,,3,poly_0,,,198.6408,[-99],,195.5086,,[1],351990,,,[0],,test3103025,Win32,,,[-85],,,,193.8081,test,,,"[""poly_0_surprise"",""poly_0_surprise""]",poly_0_train,vase,144.9275362,,[1],351990,,English,1,,poly_0_surprise,,,[1.7003999999984956],,195.5086,,196.9757,,,[1.6649000000059573],,,,,[0]
﻿,,,,,,,[0],,,[0],SESSION,,,198.6413,,,[1],,green,,,[-74],,[1],,"[""poly_3_surprise_relavent"",""poly_3_surprise_relavent""]",,5e47a5ae418f6125620ee944,0,,,[307],,[-307],2024.2.4,,poly_3_surprise_relavent,"[""Memory"",""Memory""]",2025-04-09_21h52.48.485,200.6418,[0],,2025-04-09_21h53.34.434,[1],[0.9664999999999964],,[-91],3,resources/pots/green_orange.jpg,,,,3,,orange,,,,,,203.0755,,,[0],,1,,0,poly_0,,,204.0759,[-105],,202.1088,,[1],351990,,,[0],,test3103025,Win32,,,[-76],,,,200.6419,test,,,"[""poly_0_surprise"",""poly_0_surprise""]",poly_0_train,vase,144.9275362,,[1],351990,,English,1,,poly_0_surprise,,,[1.4668999999985033],,202.1089,,203.0756,,,[1.0000999999940063],,,,,[0]
﻿205.85979999999705,,,,,,,,,,,SESSION,,,,,,,,,,,,,,,,,5e47a5ae418f6125620ee944,,,,,,,2024.2.4,,,,2025-04-09_21h52.48.485,,,204.0761,2025-04-09_21h53.34.434,,,,,,,,,,,,,,,,,,,,,,,,,,,,,,,,,,,351990,,,,,test3103025,Win32,,,,,,,,test,,,,,,144.9275362,,,351990,,English,,,,,,,,,,,,,,,,,,
﻿,,8.671,,,,,,,,,SESSION,,,,,,,,,,,,,,,,,667c3807e41cac1451ecf0e9,,,,,,,2024.2.4,,,,2025-04-09_21h59.09.406,,,,2025-04-09_21h59.49.707,,,,,,,,,,,,,,,,,,,,,,,,,,,,,,,,,0,,8443,,,,,test3103025,Win32,,,,,,,,test,,,,,,60.0240096,,,8443,,English,,,,,,,,,,,,,,,,,,
﻿,,,,,,,,,,,SESSION,[0.7660000000000053],,,,,,1,green,"[""poly_3_train"",""poly_3_train""]",[1],,0,,,,,667c3807e41cac1451ecf0e9,,[1],,,[-68],,2024.2.4,,poly_3_surprise_relavent,,2025-04-09_21h59.09.406,,,,2025-04-09_21h59.49.707,,,,,,resources/pots/green_deepblue.jpg,,,10.687,,,deepblue,,,8.685,11.455,0,,,,,,1,,,poly_3,,11.454,,,10.687,,,,8443,[0],11.454,,1,test3103025,Win32,,,,,,,,test,,[0],,poly_3_train,vase,60.0240096,,,8443,,English,,[294],poly_3_surprise,,,,,,0,,,,,,,,,
﻿,,,,,,,,,,,SESSION,[1],,,,,,8,lightblue,"[""poly_1_train"",""poly_1_train""]",[1],,0,,,,,667c3807e41cac1451ecf0e9,,[1],,,[-96],,2024.2.4,,poly_2_surprise_relavent,,2025-04-09_21h59.09.406,,,,2025-04-09_21h59.49.707,,,,,,resources/pots/lightblue_green.jpg,,,13.453,,,green,,,11.455,14.454,1,,,,,,1,,,poly_1,,14.454,,,13.453,,,,8443,[0],14.453,,1,test3103025,Win32,,,,,,,,test,,[0],,poly_1_train,vase,60.0240096,,,8443,,English,,[-51],poly_1_surprise,,,,,,1,,,,,,,,,
﻿,,,,,,,,,,,SESSION,[0.6000000000000085],,,,,,0,green,"[""poly_0_train"",""poly_0_train""]",[1],,0,,,,,667c3807e41cac1451ecf0e9,,[1],,,[-93],,2024.2.4,,poly_3_surprise_relavent,,2025-04-09_21h59.09.406,,,,2025-04-09_21h59.49.707,,,,,,resources/pots/green_orange.jpg,,,16.453,,,orange,,,14.454,17.053,2,,,,,,1,,,poly_0,,17.053,,,16.453,,,,8443,[0],17.053,,1,test3103025,Win32,,,,,,,,test,,[0],,poly_0_train,vase,60.0240096,,,8443,,English,,[-332],poly_0_surprise,,,,,,2,,,,,,,,,
﻿,,,,,,,,,,,SESSION,[0.4819999999999993],,,,,,4,green,"[""poly_2_train"",""poly_2_train""]",[1],,0,,,,,667c3807e41cac1451ecf0e9,,[1],,,[-112],,2024.2.4,,poly_3_surprise_relavent,,2025-04-09_21h59.09.406,,,,2025-04-09_21h59.49.707,,,,,,resources/pots/green_purple.jpg,,,19.053,,,purple,,,17.054,19.536,3,,,,,,1,,,poly_2,,19.536,,,19.054,,,,8443,[0],19.536,,1,test3103025,Win32,,,,,,,,test,,[0],,poly_2_train,vase,60.0240096,,,8443,,English,,[100],poly_2_surprise,,,,,,3,,,,,,,,,
﻿,,,,,,,,,,,SESSION,[],,,,,,7,red,[],[],,0,,,,,667c3807e41cac1451ecf0e9,,[],,,[],,2024.2.4,,poly_0_surprise_relavent,,2025-04-09_21h59.09.406,,,,2025-04-09_21h59.49.707,,,,,,resources/pots/red_purple.jpg,,,19.537,,,purple,,,19.537,19.538,4,,,,,,1,,,poly_2,,19.538,,,19.538,,,,8443,[],19.538,,1,test3103025,Win32,,,,,,,,test,,[],,poly_2_train,vase,60.0240096,,,8443,,English,,[],poly_2_surprise,,,,,,4,,,,,,,,,
﻿,,,,,,,,,,,SESSION,[],,,,,,2,yellow,[],[],,0,,,,,667c3807e41cac1451ecf0e9,,[],,,[],,2024.2.4,,poly_1_surprise_relavent,,2025-04-09_21h59.09.406,,,,2025-04-09_21h59.49.707,,,,,,resources/pots/yellow_deepblue.jpg,,,19.538,,,deepblue,,,19.538,19.538,5,,,,,,1,,,poly_3,,19.538,,,19.538,,,,8443,[],19.538,,1,test3103025,Win32,,,,,,,,test,,[],,poly_3_train,vase,60.0240096,,,8443,,English,,[],poly_3_surprise,,,,,,5,,,,,,,,,
﻿,,,,,,,,,,,SESSION,[],,,,,,3,red,[],[],,0,,,,,667c3807e41cac1451ecf0e9,,[],,,[],,2024.2.4,,poly_0_surprise_relavent,,2025-04-09_21h59.09.406,,,,2025-04-09_21h59.49.707,,,,,,resources/pots/red_green.jpg,,,19.538,,,green,,,19.538,19.538,6,,,,,,1,,,poly_1,,19.538,,,19.538,,,,8443,[],19.538,,1,test3103025,Win32,,,,,,,,test,,[],,poly_1_train,vase,60.0240096,,,8443,,English,,[],poly_1_surprise,,,,,,6,,,,,,,,,
﻿,,,,,,,,,,,SESSION,[],,,,,,6,lightblue,[],[],,0,,,,,667c3807e41cac1451ecf0e9,,[],,,[],,2024.2.4,,poly_2_surprise_relavent,,2025-04-09_21h59.09.406,,,,2025-04-09_21h59.49.707,,,,,,resources/pots/lightblue_purple.jpg,,,19.538,,,purple,,,19.538,19.539,7,,,,,,1,,,poly_2,,19.539,,,19.538,,,,8443,[],19.538,,1,test3103025,Win32,,,,,,,,test,,[],,poly_2_train,vase,60.0240096,,,8443,,English,,[],poly_2_surprise,,,,,,7,,,,,,,,,
﻿,,,,,,,,,,,SESSION,[],,,,,,9,yellow,[],[],,0,,,,,667c3807e41cac1451ecf0e9,,[],,,[],,2024.2.4,,poly_1_surprise_relavent,,2025-04-09_21h59.09.406,,,,2025-04-09_21h59.49.707,,,,,,resources/pots/yellow_orange.jpg,,,19.539,,,orange,,,19.539,19.539,8,,,,,,1,,,poly_0,,19.539,,,19.539,,,,8443,[],19.539,,1,test3103025,Win32,,,,,,,,test,,[],,poly_0_train,vase,60.0240096,,,8443,,English,,[],poly_0_surprise,,,,,,8,,,,,,,,,
﻿,,,,,,,,,,,SESSION,[],,,,,,5,lightblue,[],[],,0,,,,,667c3807e41cac1451ecf0e9,,[],,,[],,2024.2.4,,poly_2_surprise_relavent,,2025-04-09_21h59.09.406,,,,2025-04-09_21h59.49.707,,,,,,resources/pots/lightblue_orange.jpg,,,19.539,,,orange,,,19.539,19.539,9,,,,,,1,,,poly_0,,19.539,,,19.539,,,,8443,[],19.539,,1,test3103025,Win32,,,,,,,,test,,[],,poly_0_train,vase,60.0240096,,,8443,,English,,[],poly_0_surprise,,,,,,9,,,,,,,,,
﻿,19.539,,,,,,,,,,SESSION,,,,,,,,,,,,,,,,,667c3807e41cac1451ecf0e9,,,,,,,2024.2.4,,,,2025-04-09_21h59.09.406,,,,2025-04-09_21h59.49.707,,,,,,,,,,,,,3.677,,,,,,,,,,,,,,,,,,,,,,8443,,,,,test3103025,Win32,,,,,,,,test,,,,,,60.0240096,,,8443,,English,,,,space,,,,,,,,23.236,,,,,,
﻿,,,[],30,[],[],,1,[1],,SESSION,,[],,25.237,0,,,yellow,,,,,,[-91],,[1.0279999999999916],667c3807e41cac1451ecf0e9,,,"[""Memory"",""Memory""]",,,,2024.2.4,,poly_1_surprise_relavent,,2025-04-09_21h59.09.406,,,,2025-04-09_21h59.49.707,,,26.269,,,resources/pots/yellow_green.jpg,0,0,,,[],green,,26.269,,,,,,"[""poly_1"",""poly_1""]",,[0],1,[1],,poly_1,23.245,,,,,,,,8443,,,,,test3103025,Win32,29.136,[0],,[-96],[2.864999999999995],25.238,,test,[0],,,poly_1_train,vase,60.0240096,[0],,8443,[1],English,,,poly_1_surprise,,[-77],,[-108],,,,[],,,25.239,25.239,[],[],
﻿,,,[],29,[],[],,1,[],,SESSION,,[],,31.136,1,,,green,,,,,,[],,[0.6159999999999997],667c3807e41cac1451ecf0e9,,,[],,,,2024.2.4,,poly_3_surprise_relavent,,2025-04-09_21h59.09.406,,,,2025-04-09_21h59.49.707,,,31.752,,,resources/pots/green_purple.jpg,0,1,,,[],purple,,31.752,,,,,,"[""poly_2"",""poly_2""]",,[0],1,[1],,poly_2,29.138,,,,,,,,8443,,,,,test3103025,Win32,31.752,[0],,[-80],[],31.136,,test,[],,,poly_2_train,vase,60.0240096,[],,8443,[1],English,,,poly_2_surprise,,[],,[90],,,,[],,,31.136,31.136,[],[],
﻿,,,[],20,[],[],,1,[],,SESSION,,[],,33.752,2,,,green,,,,,,[],,[1.0499999999999972],667c3807e41cac1451ecf0e9,,,[],,,,2024.2.4,,poly_3_surprise_relavent,,2025-04-09_21h59.09.406,,,,2025-04-09_21h59.49.707,,,34.803,,,resources/pots/green_deepblue.jpg,0,2,,,[],deepblue,,34.803,,,,,,"[""poly_3"",""poly_3""]",,[0],1,[1],,poly_3,31.754,,,,,,,,8443,,,,,test3103025,Win32,34.803,[0],,[-82],[],33.752,,test,[],,,poly_3_train,vase,60.0240096,[],,8443,[1],English,,,poly_3_surprise,,[],,[253],,,,[],,,33.752,33.753,[],[],
﻿,,,[],19,[],[],,1,[],,SESSION,,[],,36.802,3,,,yellow,,,,,,[],,[0.5160000000000053],667c3807e41cac1451ecf0e9,,,[],,,,2024.2.4,,poly_1_surprise_relavent,,2025-04-09_21h59.09.406,,,,2025-04-09_21h59.49.707,,,37.319,,,resources/pots/yellow_deepblue.jpg,0,3,,,[],deepblue,,37.319,,,,,,"[""poly_3"",""poly_3""]",,[0],1,[1],,poly_3,34.804,,,,,,,,8443,,,,,test3103025,Win32,37.319,[0],,[-113],[],36.802,,test,[],,,poly_3_train,vase,60.0240096,[],,8443,[1],English,,,poly_3_surprise,,[],,[317],,,,[],,,36.803,36.803,[],[],
﻿,,,[],0,[],[],,1,[1],,SESSION,,[],,39.319,4,,,green,,,,,,[-97],,[0.6989999999999981],667c3807e41cac1451ecf0e9,,,"[""Memory"",""Memory""]",,,,2024.2.4,,poly_3_surprise_relavent,,2025-04-09_21h59.09.406,,,,2025-04-09_21h59.49.707,,,40.018,,,resources/pots/green_orange.jpg,0,4,,,[],orange,,40.018,,,,,,"[""poly_0"",""poly_0""]",,[0],1,[1],,poly_0,37.319,,,,,,,,8443,,,,,test3103025,Win32,41.602,[0],,[-85],[1.5830000000000126],39.319,,test,[0],,,poly_0_train,vase,60.0240096,[0],,8443,[1],English,,,poly_0_surprise,,[-96],,[-265],,,,[],,,39.319,39.319,[],[],
﻿,,,[],7,[],[],,1,[],,SESSION,,[],,43.602,5,,,red,,,,,,[],,[0.5169999999999959],667c3807e41cac1451ecf0e9,,,[],,,,2024.2.4,,poly_0_surprise_relavent,,2025-04-09_21h59.09.406,,,,2025-04-09_21h59.49.707,,,44.119,,,resources/pots/red_purple.jpg,0,5,,,[],purple,,44.119,,,,,,"[""poly_2"",""poly_2""]",,[0],1,[1],,poly_2,41.603,,,,,,,,8443,,,,,test3103025,Win32,44.119,[0],,[-126],[],43.602,,test,[],,,poly_2_train,vase,60.0240096,[],,8443,[1],English,,,poly_2_surprise,,[],,[108],,,,[],,,43.602,43.602,[],[],
﻿,,,[],16,[],[],,1,[],,SESSION,,[],,46.119,6,,,green,,,,,,[],,[0.4830000000000041],667c3807e41cac1451ecf0e9,,,[],,,,2024.2.4,,poly_3_surprise_relavent,,2025-04-09_21h59.09.406,,,,2025-04-09_21h59.49.707,,,46.602,,,resources/pots/green_orange.jpg,0,6,,,[],orange,,46.602,,,,,,"[""poly_0"",""poly_0""]",,[0],1,[1],,poly_0,44.12,,,,,,,,8443,,,,,test3103025,Win32,46.602,[0],,[-111],[],46.119,,test,[],,,poly_0_train,vase,60.0240096,[],,8443,[1],English,,,poly_0_surprise,,[],,[-275],,,,[],,,46.119,46.119,[],[],
﻿,,,[],33,[],[],,1,[1],,SESSION,,[],,48.601,7,,,lightblue,,,,,,[-99],,[0.3509999999999991],667c3807e41cac1451ecf0e9,,,"[""Memory"",""Memory""]",,,,2024.2.4,,poly_2_surprise_relavent,,2025-04-09_21h59.09.406,,,,2025-04-09_21h59.49.707,,,48.952,,,resources/pots/lightblue_orange.jpg,0,7,,,[],orange,,48.952,,,,,,"[""poly_0"",""poly_0""]",,[0],1,[1],,poly_0,46.602,,,,,,,,8443,,,,,test3103025,Win32,50.085,[0],,[-113],[1.1329999999999956],48.601,,test,[0],,,poly_0_train,vase,60.0240096,[0],,8443,[1],English,,,poly_0_surprise,,[-109],,[-296],,,,[],,,48.601,48.601,[],[],
﻿,,,[],38,[],[],,1,[],,SESSION,,[],,52.085,8,,,red,,,,,,[],,[0.4819999999999993],667c3807e41cac1451ecf0e9,,,[],,,,2024.2.4,,poly_0_surprise_relavent,,2025-04-09_21h59.09.406,,,,2025-04-09_21h59.49.707,,,52.568,,,resources/pots/red_purple.jpg,0,8,,,[],purple,,52.568,,,,,,"[""poly_2"",""poly_2""]",,[0],1,[1],,poly_2,50.086,,,,,,,,8443,,,,,test3103025,Win32,52.568,[0],,[-99],[],52.085,,test,[],,,poly_2_train,vase,60.0240096,[],,8443,[1],English,,,poly_2_surprise,,[],,[97],,,,[],,,52.085,52.086,[],[],
﻿,,,[],27,[],[],,1,[],,SESSION,,[],,54.568,9,,,yellow,,,,,,[],,[0.45000000000000284],667c3807e41cac1451ecf0e9,,,[],,,,2024.2.4,,poly_1_surprise_relavent,,2025-04-09_21h59.09.406,,,,2025-04-09_21h59.49.707,,,55.018,,,resources/pots/yellow_green.jpg,0,9,,,[],green,,55.018,,,,,,"[""poly_1"",""poly_1""]",,[0],1,[1],,poly_1,52.569,,,,,,,,8443,,,,,test3103025,Win32,55.018,[0],,[-95],[],54.568,,test,[],,,poly_1_train,vase,60.0240096,[],,8443,[1],English,,,poly_1_surprise,,[],,[-148],,,,[],,,54.568,54.568,[],[],
﻿,,,[],12,[],[],,1,[],,SESSION,,[],,57.018,10,,,green,,,,,,[],,[0.4509999999999934],667c3807e41cac1451ecf0e9,,,[],,,,2024.2.4,,poly_3_surprise_relavent,,2025-04-09_21h59.09.406,,,,2025-04-09_21h59.49.707,,,57.469,,,resources/pots/green_purple.jpg,0,10,,,[],purple,,57.469,,,,,,"[""poly_2"",""poly_2""]",,[0],1,[1],,poly_2,55.019,,,,,,,,8443,,,,,test3103025,Win32,57.47,[0],,[-117],[],57.018,,test,[],,,poly_2_train,vase,60.0240096,[],,8443,[1],English,,,poly_2_surprise,,[],,[115],,,,[],,,57.018,57.018,[],[],
﻿,,,[],15,[],[],,1,[],,SESSION,,[],,59.468,11,,,lightblue,,,,,,[],,[0.2820000000000107],667c3807e41cac1451ecf0e9,,,[],,,,2024.2.4,,poly_2_surprise_relavent,,2025-04-09_21h59.09.406,,,,2025-04-09_21h59.49.707,,,59.751,,,resources/pots/lightblue_purple.jpg,0,11,,,[],purple,,59.751,,,,,,"[""poly_2"",""poly_2""]",,[0],1,[1],,poly_2,57.471,,,,,,,,8443,,,,,test3103025,Win32,59.751,[0],,[-117],[],59.468,,test,[],,,poly_2_train,vase,60.0240096,[],,8443,[1],English,,,poly_2_surprise,,[],,[115],,,,[],,,59.468,59.469,[],[],
﻿,,,[],25,[],[],,1,[],,SESSION,,[],,61.751,12,,,lightblue,,,,,,[],,[0.2819999999999965],667c3807e41cac1451ecf0e9,,,[],,,,2024.2.4,,poly_2_surprise_relavent,,2025-04-09_21h59.09.406,,,,2025-04-09_21h59.49.707,,,62.034,,,resources/pots/lightblue_purple.jpg,0,12,,,[],purple,,62.034,,,,,,"[""poly_2"",""poly_2""]",,[0],1,[1],,poly_2,59.752,,,,,,,,8443,,,,,test3103025,Win32,62.034,[0],,[-117],[],61.751,,test,[],,,poly_2_train,vase,60.0240096,[],,8443,[1],English,,,poly_2_surprise,,[],,[115],,,,[],,,61.751,61.752,[],[],
﻿,,,[],32,[],[],,1,[1],,SESSION,,[],,64.034,13,,,red,,,,,,[-105],,[0.8659999999999997],667c3807e41cac1451ecf0e9,,,"[""Memory"",""Memory""]",,,,2024.2.4,,poly_0_surprise_relavent,,2025-04-09_21h59.09.406,,,,2025-04-09_21h59.49.707,,,64.901,,,resources/pots/red_deepblue.jpg,0,13,,,[],deepblue,,64.901,,,,,,"[""poly_3"",""poly_3""]",,[0],1,[1],,poly_3,62.036,,,,,,,,8443,,,,,test3103025,Win32,65.834,[0],,[-114],[0.9330000000000069],64.034,,test,[0],,,poly_3_train,vase,60.0240096,[0],,8443,[1],English,,,poly_3_surprise,,[-63],,[312],,,,[],,,64.035,64.035,[],[],
﻿,,,[],36,[],[],,1,[],,SESSION,,[],,67.835,14,,,yellow,,,,,,[],,[0.9830000000000041],667c3807e41cac1451ecf0e9,,,[],,,,2024.2.4,,poly_1_surprise_relavent,,2025-04-09_21h59.09.406,,,,2025-04-09_21h59.49.707,,,68.818,,,resources/pots/yellow_orange.jpg,0,14,,,[],orange,,68.818,,,,,,"[""poly_0"",""poly_0""]",,[0],1,[1],,poly_0,65.836,,,,,,,,8443,,,,,test3103025,Win32,68.818,[0],,[-89],[],67.835,,test,[],,,poly_0_train,vase,60.0240096,[],,8443,[1],English,,,poly_0_surprise,,[],,[-259],,,,[],,,67.835,67.835,[],[],
﻿,,,[],23,[],[],,1,[],,SESSION,,[],,70.818,15,,,red,,,,,,[],,[0.7660000000000053],667c3807e41cac1451ecf0e9,,,[],,,,2024.2.4,,poly_0_surprise_relavent,,2025-04-09_21h59.09.406,,,,2025-04-09_21h59.49.707,,,71.584,,,resources/pots/red_deepblue.jpg,0,15,,,[],deepblue,,71.584,,,,,,"[""poly_3"",""poly_3""]",,[0],1,[1],,poly_3,68.818,,,,,,,,8443,,,,,test3103025,Win32,71.584,[0],,[-93],[],70.818,,test,[],,,poly_3_train,vase,60.0240096,[],,8443,[1],English,,,poly_3_surprise,,[],,[324],,,,[],,,70.818,70.818,[],[],
﻿,,,[],21,[],[],,1,[],,SESSION,,[],,73.584,16,,,lightblue,,,,,,[],,[0.5249999999999915],667c3807e41cac1451ecf0e9,,,[],,,,2024.2.4,,poly_2_surprise_relavent,,2025-04-09_21h59.09.406,,,,2025-04-09_21h59.49.707,,,74.109,,,resources/pots/lightblue_orange.jpg,0,16,,,[],orange,,74.109,,,,,,"[""poly_0"",""poly_0""]",,[0],1,[1],,poly_0,71.585,,,,,,,,8443,,,,,test3103025,Win32,74.109,[0],,[-86],[],73.584,,test,[],,,poly_0_train,vase,60.0240096,[],,8443,[1],English,,,poly_0_surprise,,[],,[-308],,,,[],,,73.584,73.584,[],[],
﻿,,,[],9,[],[],,1,[],,SESSION,,[],,76.117,17,,,yellow,,,,,,[],,[0.382000000000005],667c3807e41cac1451ecf0e9,,,[],,,,2024.2.4,,poly_1_surprise_relavent,,2025-04-09_21h59.09.406,,,,2025-04-09_21h59.49.707,,,76.5,,,resources/pots/yellow_orange.jpg,0,17,,,[],orange,,76.5,,,,,,"[""poly_0"",""poly_0""]",,[0],1,[1],,poly_0,74.11,,,,,,,,8443,,,,,test3103025,Win32,76.5,[0],,[-88],[],76.117,,test,[],,,poly_0_train,vase,60.0240096,[],,8443,[1],English,,,poly_0_surprise,,[],,[-303],,,,[],,,76.117,76.118,[],[],
﻿,,,[],41,[],[],,1,[],,SESSION,,[],,78.501,18,,,yellow,,,,,,[],,[0.6159999999999997],667c3807e41cac1451ecf0e9,,,[],,,,2024.2.4,,poly_1_surprise_relavent,,2025-04-09_21h59.09.406,,,,2025-04-09_21h59.49.707,,,79.117,,,resources/pots/yellow_green.jpg,0,18,,,[],green,,79.118,,,,,,"[""poly_1"",""poly_1""]",,[0],1,[1],,poly_1,76.501,,,,,,,,8443,,,,,test3103025,Win32,79.118,[0],,[-70],[],78.501,,test,[],,,poly_1_train,vase,60.0240096,[],,8443,[1],English,,,poly_1_surprise,,[],,[-85],,,,[],,,78.501,78.501,[],[],
﻿,,,[],26,[],[],,1,[],,SESSION,,[],,81.117,19,,,red,,,,,,[],,[0.6340000000000003],667c3807e41cac1451ecf0e9,,,[],,,,2024.2.4,,poly_0_surprise_relavent,,2025-04-09_21h59.09.406,,,,2025-04-09_21h59.49.707,,,81.751,,,resources/pots/red_deepblue.jpg,0,19,,,[],deepblue,,81.751,,,,,,"[""poly_3"",""poly_3""]",,[0],1,[1],,poly_3,79.118,,,,,,,,8443,,,,,test3103025,Win32,81.751,[0],,[-96],[],81.117,,test,[],,,poly_3_train,vase,60.0240096,[],,8443,[1],English,,,poly_3_surprise,,[],,[255],,,,[],,,81.117,81.117,[],[],
﻿,,,[],40,[],[],,1,[],,SESSION,,[],,83.75,20,,,green,,,,,,[],,[0.8160000000000025],667c3807e41cac1451ecf0e9,,,[],,,,2024.2.4,,poly_3_surprise_relavent,,2025-04-09_21h59.09.406,,,,2025-04-09_21h59.49.707,,,84.567,,,resources/pots/green_orange.jpg,0,20,,,[],orange,,84.567,,,,,,"[""poly_0"",""poly_0""]",,[0],1,[1],,poly_0,81.751,,,,,,,,8443,,,,,test3103025,Win32,84.567,[0],,[-68],[],83.75,,test,[],,,poly_0_train,vase,60.0240096,[],,8443,[1],English,,,poly_0_surprise,,[],,[-278],,,,[],,,83.751,83.751,[],[],
﻿,,,[0],5,[1.0730000000000075],[1],,1,[1],,SESSION,,[1],,86.566,21,,,lightblue,,,,,,[-87],,[1.9159999999999968],667c3807e41cac1451ecf0e9,,,"[""Guess"",""Guess""]",,,,2024.2.4,,poly_2_surprise_relavent,,2025-04-09_21h59.09.406,,,,2025-04-09_21h59.49.707,,,90.567,,,resources/pots/lightblue_orange.jpg,0,21,,,"[""num_4"",""num_4""]",orange,,90.567,,,,,,"[""poly_0"",""poly_0""]",,[0],1,[1],,poly_0,84.568,,,,,,,,8443,,,,,test3103025,Win32,92.25,[0],,[-70],[1.681999999999988],86.566,,test,[0],,,poly_0_train,vase,60.0240096,[0],,8443,[1],English,,,poly_0_surprise,,[-339],,[-286],,,,[-63],,,88.65,88.651,[80],[0],
﻿,,,[],3,[],[],,1,[],,SESSION,,[],,94.249,22,,,red,,,,,,[],,[0.7830000000000155],667c3807e41cac1451ecf0e9,,,[],,,,2024.2.4,,poly_0_surprise_relavent,,2025-04-09_21h59.09.406,,,,2025-04-09_21h59.49.707,,,95.034,,,resources/pots/red_green.jpg,0,22,,,[],green,,95.034,,,,,,"[""poly_1"",""poly_1""]",,[0],1,[1],,poly_1,92.252,,,,,,,,8443,,,,,test3103025,Win32,95.034,[0],,[-80],[],94.249,,test,[],,,poly_1_train,vase,60.0240096,[],,8443,[1],English,,,poly_1_surprise,,[],,[-127],,,,[],,,94.25,94.25,[],[],
﻿,,,[],11,[],[],,1,[],,SESSION,,[],,97.032,23,,,lightblue,,,,,,[],,[0.664999999999992],667c3807e41cac1451ecf0e9,,,[],,,,2024.2.4,,poly_2_surprise_relavent,,2025-04-09_21h59.09.406,,,,2025-04-09_21h59.49.707,,,97.699,,,resources/pots/lightblue_purple.jpg,0,23,,,[],purple,,97.699,,,,,,"[""poly_2"",""poly_2""]",,[0],1,[1],,poly_2,95.034,,,,,,,,8443,,,,,test3103025,Win32,97.699,[0],,[-126],[],97.032,,test,[],,,poly_2_train,vase,60.0240096,[],,8443,[1],English,,,poly_2_surprise,,[],,[147],,,,[],,,97.033,97.034,[],[],
﻿,,,[],24,[],[],,1,[1],,SESSION,,[],,99.7,24,,,green,,,,,,[-109],,[0.3819999999999766],667c3807e41cac1451ecf0e9,,,"[""Memory"",""Memory""]",,,,2024.2.4,,poly_3_surprise_relavent,,2025-04-09_21h59.09.406,,,,2025-04-09_21h59.49.707,,,100.083,,,resources/pots/green_deepblue.jpg,0,24,,,[],deepblue,,100.083,,,,,,"[""poly_3"",""poly_3""]",,[0],1,[1],,poly_3,97.7,,,,,,,,8443,,,,,test3103025,Win32,101.1,[0],,[-106],[1.0170000000000243],99.7,,test,[0],,,poly_3_train,vase,60.0240096,[0],,8443,[1],English,,,poly_3_surprise,,[-124],,[313],,,,[],,,99.7,99.701,[],[],
﻿,,,[],39,[],[],,1,[],,SESSION,,[],,103.1,25,,,lightblue,,,,,,[],,[0.6820000000000164],667c3807e41cac1451ecf0e9,,,[],,,,2024.2.4,,poly_2_surprise_relavent,,2025-04-09_21h59.09.406,,,,2025-04-09_21h59.49.707,,,103.783,,,resources/pots/lightblue_green.jpg,0,25,,,[],green,,103.783,,,,,,"[""poly_1"",""poly_1""]",,[0],1,[1],,poly_1,101.1,,,,,,,,8443,,,,,test3103025,Win32,103.783,[0],,[-77],[],103.1,,test,[],,,poly_1_train,vase,60.0240096,[],,8443,[1],English,,,poly_1_surprise,,[],,[-61],,,,[],,,103.1,103.1,[],[],
﻿,,,[],1,[],[],,1,[],,SESSION,,[],,105.782,26,,,green,,,,,,[],,[0.4509999999999934],667c3807e41cac1451ecf0e9,,,[],,,,2024.2.4,,poly_3_surprise_relavent,,2025-04-09_21h59.09.406,,,,2025-04-09_21h59.49.707,,,106.233,,,resources/pots/green_deepblue.jpg,0,26,,,[],deepblue,,106.233,,,,,,"[""poly_3"",""poly_3""]",,[0],1,[1],,poly_3,103.784,,,,,,,,8443,,,,,test3103025,Win32,106.233,[0],,[-92],[],105.782,,test,[],,,poly_3_train,vase,60.0240096,[],,8443,[1],English,,,poly_3_surprise,,[],,[285],,,,[],,,105.782,105.782,[],[],
﻿,,,[],18,[],[],,1,[1],,SESSION,,[],,108.233,27,,,yellow,,,,,,[-119],,[0.34900000000001796],667c3807e41cac1451ecf0e9,,,"[""Memory"",""Memory""]",,,,2024.2.4,,poly_1_surprise_relavent,,2025-04-09_21h59.09.406,,,,2025-04-09_21h59.49.707,,,108.582,,,resources/pots/yellow_deepblue.jpg,0,27,,,[],deepblue,,108.583,,,,,,"[""poly_3"",""poly_3""]",,[0],1,[1],,poly_3,106.234,,,,,,,,8443,,,,,test3103025,Win32,109.432,[0],,[-104],[0.849000000000018],108.233,,test,[0],,,poly_3_train,vase,60.0240096,[0],,8443,[1],English,,,poly_3_surprise,,[-76],,[287],,,,[],,,108.233,108.233,[],[],
﻿,,,[],4,[],[],,1,[],,SESSION,,[],,111.433,28,,,green,,,,,,[],,[0.5159999999999911],667c3807e41cac1451ecf0e9,,,[],,,,2024.2.4,,poly_3_surprise_relavent,,2025-04-09_21h59.09.406,,,,2025-04-09_21h59.49.707,,,111.949,,,resources/pots/green_purple.jpg,0,28,,,[],purple,,111.949,,,,,,"[""poly_2"",""poly_2""]",,[0],1,[1],,poly_2,109.433,,,,,,,,8443,,,,,test3103025,Win32,111.949,[0],,[-94],[],111.433,,test,[],,,poly_2_train,vase,60.0240096,[],,8443,[1],English,,,poly_2_surprise,,[],,[79],,,,[],,,111.433,111.433,[],[],
﻿,,,[],8,[],[],,1,[],,SESSION,,[],,113.949,29,,,lightblue,,,,,,[],,[0.44999999999998863],667c3807e41cac1451ecf0e9,,,[],,,,2024.2.4,,poly_2_surprise_relavent,,2025-04-09_21h59.09.406,,,,2025-04-09_21h59.49.707,,,114.4,,,resources/pots/lightblue_green.jpg,0,29,,,[],green,,114.4,,,,,,"[""poly_1"",""poly_1""]",,[0],1,[1],,poly_1,111.95,,,,,,,,8443,,,,,test3103025,Win32,114.4,[0],,[-99],[],113.949,,test,[],,,poly_1_train,vase,60.0240096,[],,8443,[1],English,,,poly_1_surprise,,[],,[-119],,,,[],,,113.949,113.949,[],[],
﻿,,,[],28,[],[],,1,[],,SESSION,,[],,116.399,30,,,yellow,,,,,,[],,[0.43200000000001637],667c3807e41cac1451ecf0e9,,,[],,,,2024.2.4,,poly_1_surprise_relavent,,2025-04-09_21h59.09.406,,,,2025-04-09_21h59.49.707,,,116.832,,,resources/pots/yellow_orange.jpg,0,30,,,[],orange,,116.832,,,,,,"[""poly_0"",""poly_0""]",,[0],1,[1],,poly_0,114.4,,,,,,,,8443,,,,,test3103025,Win32,116.832,[0],,[-110],[],116.399,,test,[],,,poly_0_train,vase,60.0240096,[],,8443,[1],English,,,poly_0_surprise,,[],,[-296],,,,[],,,116.4,116.4,[],[],
﻿,,,[],31,[],[],,1,[],,SESSION,,[],,118.833,31,,,lightblue,,,,,,[],,[0.7150000000000034],667c3807e41cac1451ecf0e9,,,[],,,,2024.2.4,,poly_2_surprise_relavent,,2025-04-09_21h59.09.406,,,,2025-04-09_21h59.49.707,,,119.548,,,resources/pots/lightblue_green.jpg,0,31,,,[],green,,119.549,,,,,,"[""poly_1"",""poly_1""]",,[0],1,[1],,poly_1,116.833,,,,,,,,8443,,,,,test3103025,Win32,119.549,[0],,[-65],[],118.833,,test,[],,,poly_1_train,vase,60.0240096,[],,8443,[1],English,,,poly_1_surprise,,[],,[-91],,,,[],,,118.833,118.833,[],[],
﻿,,,[],22,[],[],,1,[],,SESSION,,[],,121.549,32,,,red,,,,,,[],,[0.3499999999999943],667c3807e41cac1451ecf0e9,,,[],,,,2024.2.4,,poly_0_surprise_relavent,,2025-04-09_21h59.09.406,,,,2025-04-09_21h59.49.707,,,121.899,,,resources/pots/red_deepblue.jpg,0,32,,,[],deepblue,,121.899,,,,,,"[""poly_3"",""poly_3""]",,[0],1,[1],,poly_3,119.549,,,,,,,,8443,,,,,test3103025,Win32,121.899,[0],,[-103],[],121.549,,test,[],,,poly_3_train,vase,60.0240096,[],,8443,[1],English,,,poly_3_surprise,,[],,[332],,,,[],,,121.549,121.549,[],[],
﻿,,,[],34,[],[],,1,[],,SESSION,,[],,123.899,33,,,red,,,,,,[],,[0.5160000000000196],667c3807e41cac1451ecf0e9,,,[],,,,2024.2.4,,poly_0_surprise_relavent,,2025-04-09_21h59.09.406,,,,2025-04-09_21h59.49.707,,,124.416,,,resources/pots/red_purple.jpg,0,33,,,[],purple,,124.416,,,,,,"[""poly_2"",""poly_2""]",,[0],1,[1],,poly_2,121.9,,,,,,,,8443,,,,,test3103025,Win32,124.416,[0],,[-124],[],123.899,,test,[],,,poly_2_train,vase,60.0240096,[],,8443,[1],English,,,poly_2_surprise,,[],,[147],,,,[],,,123.899,123.9,[],[],
﻿,,,[],14,[],[],,1,[1],,SESSION,,[],,126.416,34,,,green,,,,,,[-107],,[0.2980000000000018],667c3807e41cac1451ecf0e9,,,"[""Memory"",""Memory""]",,,,2024.2.4,,poly_3_surprise_relavent,,2025-04-09_21h59.09.406,,,,2025-04-09_21h59.49.707,,,126.715,,,resources/pots/green_orange.jpg,0,34,,,[],orange,,126.715,,,,,,"[""poly_0"",""poly_0""]",,[0],1,[1],,poly_0,124.418,,,,,,,,8443,,,,,test3103025,Win32,127.666,[0],,[-90],[0.9510000000000218],126.416,,test,[0],,,poly_0_train,vase,60.0240096,[0],,8443,[1],English,,,poly_0_surprise,,[-115],,[-319],,,,[],,,126.416,126.417,[],[],
﻿,,,[],13,[],[],,1,[],,SESSION,,[],,129.666,35,,,red,,,,,,[],,[0.563999999999993],667c3807e41cac1451ecf0e9,,,[],,,,2024.2.4,,poly_0_surprise_relavent,,2025-04-09_21h59.09.406,,,,2025-04-09_21h59.49.707,,,130.232,,,resources/pots/red_green.jpg,0,35,,,[],green,,130.232,,,,,,"[""poly_1"",""poly_1""]",,[0],1,[1],,poly_1,127.666,,,,,,,,8443,,,,,test3103025,Win32,130.232,[0],,[-107],[],129.666,,test,[],,,poly_1_train,vase,60.0240096,[],,8443,[1],English,,,poly_1_surprise,,[],,[-60],,,,[],,,129.667,129.668,[],[],
﻿,,,[],6,[],[],,1,[],,SESSION,,[],,132.232,36,,,lightblue,,,,,,[],,[0.8000000000000114],667c3807e41cac1451ecf0e9,,,[],,,,2024.2.4,,poly_2_surprise_relavent,,2025-04-09_21h59.09.406,,,,2025-04-09_21h59.49.707,,,133.032,,,resources/pots/lightblue_purple.jpg,0,36,,,[],purple,,133.032,,,,,,"[""poly_2"",""poly_2""]",,[0],1,[1],,poly_2,130.233,,,,,,,,8443,,,,,test3103025,Win32,133.032,[0],,[-82],[],132.232,,test,[],,,poly_2_train,vase,60.0240096,[],,8443,[1],English,,,poly_2_surprise,,[],,[146],,,,[],,,132.232,132.232,[],[],
﻿,,,[],17,[],[],,1,[],,SESSION,,[],,135.032,37,,,yellow,,,,,,[],,[0.3830000000000098],667c3807e41cac1451ecf0e9,,,[],,,,2024.2.4,,poly_1_surprise_relavent,,2025-04-09_21h59.09.406,,,,2025-04-09_21h59.49.707,,,135.415,,,resources/pots/yellow_orange.jpg,0,37,,,[],orange,,135.415,,,,,,"[""poly_0"",""poly_0""]",,[0],1,[1],,poly_0,133.033,,,,,,,,8443,,,,,test3103025,Win32,135.415,[0],,[-109],[],135.032,,test,[],,,poly_0_train,vase,60.0240096,[],,8443,[1],English,,,poly_0_surprise,,[],,[-292],,,,[],,,135.032,135.032,[],[],
﻿,,,[],10,[],[],,1,[1],,SESSION,,[],,137.414,38,,,green,,,,,,[-102],,[0.7489999999999952],667c3807e41cac1451ecf0e9,,,"[""Memory"",""Memory""]",,,,2024.2.4,,poly_3_surprise_relavent,,2025-04-09_21h59.09.406,,,,2025-04-09_21h59.49.707,,,138.164,,,resources/pots/green_purple.jpg,0,38,,,[],purple,,138.164,,,,,,"[""poly_2"",""poly_2""]",,[0],1,[1],,poly_2,135.416,,,,,,,,8443,,,,,test3103025,Win32,138.964,[0],,[-79],[0.799999999999983],137.414,,test,[0],,,poly_2_train,vase,60.0240096,[0],,8443,[1],English,,,poly_2_surprise,,[-68],,[90],,,,[],,,137.414,137.415,[],[],
﻿,,,[],37,[],[],,1,[],,SESSION,,[],,140.964,39,,,red,,,,,,[],,[0.4660000000000082],667c3807e41cac1451ecf0e9,,,[],,,,2024.2.4,,poly_0_surprise_relavent,,2025-04-09_21h59.09.406,,,,2025-04-09_21h59.49.707,,,141.431,,,resources/pots/red_green.jpg,0,39,,,[],green,,141.431,,,,,,"[""poly_1"",""poly_1""]",,[0],1,[1],,poly_1,138.965,,,,,,,,8443,,,,,test3103025,Win32,141.431,[0],,[-103],[],140.964,,test,[],,,poly_1_train,vase,60.0240096,[],,8443,[1],English,,,poly_1_surprise,,[],,[-69],,,,[],,,140.964,140.965,[],[],
﻿,,,[],35,[],[],,1,[],,SESSION,,[],,143.431,40,,,red,,,,,,[],,[0.8830000000000098],667c3807e41cac1451ecf0e9,,,[],,,,2024.2.4,,poly_0_surprise_relavent,,2025-04-09_21h59.09.406,,,,2025-04-09_21h59.49.707,,,144.314,,,resources/pots/red_purple.jpg,0,40,,,[],purple,,144.314,,,,,,"[""poly_2"",""poly_2""]",,[0],1,[1],,poly_2,141.432,,,,,,,,8443,,,,,test3103025,Win32,144.314,[0],,[-104],[],143.431,,test,[],,,poly_2_train,vase,60.0240096,[],,8443,[1],English,,,poly_2_surprise,,[],,[71],,,,[],,,143.431,143.431,[],[],
﻿,,,[],2,[],[],,1,[],,SESSION,,[],,146.314,41,,,yellow,,,,,,[],,[0.36599999999998545],667c3807e41cac1451ecf0e9,,,[],,,,2024.2.4,,poly_1_surprise_relavent,,2025-04-09_21h59.09.406,,,,2025-04-09_21h59.49.707,,,146.681,,,resources/pots/yellow_deepblue.jpg,0,41,,,[],deepblue,,146.681,,,,,,"[""poly_3"",""poly_3""]",,[0],1,[1],,poly_3,144.315,,,,,,,,8443,,,,,test3103025,Win32,146.681,[0],,[-118],[],146.314,,test,[],,,poly_3_train,vase,60.0240096,[],,8443,[1],English,,,poly_3_surprise,,[],,[327],,,,[],,,146.314,146.315,[],[],
﻿,,,,,,,[0],,,[0],SESSION,,,146.693,,,[1],,red,,,[-315],,[1],,"[""poly_3_surprise_relavent"",""poly_3_surprise_relavent""]",,667c3807e41cac1451ecf0e9,0,,,[327],,[-103],2024.2.4,,poly_3_surprise_relavent,"[""Guess"",""Guess""]",2025-04-09_21h59.09.406,148.681,[0],,2025-04-09_21h59.49.707,[0],[1.5810000000000173],,[-78],0,resources/pots/red_deepblue.jpg,,,,0,,deepblue,,,,,,152.047,,,[0],,1,,2,poly_0,,,154.064,[-98],,150.464,,[1],8443,,,[0],,test3103025,Win32,,,[-126],,,,148.682,test,,,"[""poly_1_surprise"",""poly_1_surprise""]",poly_0_train,flower,60.0240096,,[1],8443,,English,1,,poly_0_surprise,,,[1.7819999999999823],,150.465,,152.047,,,[2.015999999999991],,,,,[0]
﻿,,,,,,,[0],,,[0],SESSION,,,154.064,,,[1],,red,,,[-72],,[1],,"[""poly_1_surprise_relavent"",""poly_1_surprise_relavent""]",,667c3807e41cac1451ecf0e9,0,,,[-71],,[-270],2024.2.4,,poly_1_surprise_relavent,"[""Memory"",""Memory""]",2025-04-09_21h59.09.406,156.064,[0],,2025-04-09_21h59.49.707,[1],[0.9639999999999986],,[-92],1,resources/pots/red_green.jpg,,,,1,,green,,,,,,158.397,,,[0],,1,,3,poly_0,,,158.864,[-92],,157.432,,[1],8443,,,[0],,test3103025,Win32,,,[-111],,,,156.065,test,,,"[""poly_0_surprise"",""poly_0_surprise""]",poly_0_train,flower,60.0240096,,[1],8443,,English,1,,poly_0_surprise,,,[1.3649999999999807],,157.432,,158.397,,,[0.46699999999998454],,,,,[0]
﻿,,,,,,,[0],,,[0],SESSION,,,158.866,,,[1],,red,,,[-97],,[1],,"[""poly_1_surprise_relavent"",""poly_1_surprise_relavent""]",,667c3807e41cac1451ecf0e9,0,,,[-113],,[-313],2024.2.4,,poly_1_surprise_relavent,"[""Memory"",""Memory""]",2025-04-09_21h59.09.406,160.863,[0],,2025-04-09_21h59.49.707,[1],[0.7330000000000041],,[-119],2,resources/pots/red_green.jpg,,,,2,,green,,,,,,190.047,,,[0],,1,,1,poly_0,,,190.479,[-112],,189.313,,[1],8443,,,[0],,test3103025,Win32,,,[-98],,,,160.863,test,,,"[""poly_0_surprise"",""poly_0_surprise""]",poly_0_train,flower,60.0240096,,[1],8443,,English,1,,poly_0_surprise,,,[28.450000000000017],,189.314,,190.047,,,[0.43199999999998795],,,,,[0]
﻿,,,,,,,[0],,,[0],SESSION,,,190.483,,,[1],,yellow,,,[-101],,[1],,"[""poly_0_surprise_relavent"",""poly_0_surprise_relavent""]",,667c3807e41cac1451ecf0e9,0,,,[-255],,[-111],2024.2.4,,poly_0_surprise_relavent,"[""Memory"",""Memory""]",2025-04-09_21h59.09.406,192.479,[0],,2025-04-09_21h59.49.707,[1],[0.5669999999999789],,[-121],3,resources/pots/yellow_orange.jpg,,,,3,,orange,,,,,,193.863,,,[0],,1,,0,poly_1,,,195.362,[-107],,193.295,,[1],8443,,,[0],,test3103025,Win32,,,[-99],,,,192.479,test,,,"[""poly_1_surprise"",""poly_1_surprise""]",poly_1_train,flower,60.0240096,,[1],8443,,English,1,,poly_1_surprise,,,[0.8160000000000025],,193.296,,193.863,,,[1.4990000000000236],,,,,[0]
﻿197.012,,,,,,,,,,,SESSION,,,,,,,,,,,,,,,,,667c3807e41cac1451ecf0e9,,,,,,,2024.2.4,,,,2025-04-09_21h59.09.406,,,195.363,2025-04-09_21h59.49.707,,,,,,,,,,,,,,,,,,,,,,,,,,,,,,,,,,,8443,,,,,test3103025,Win32,,,,,,,,test,,,,,,60.0240096,,,8443,,English,,,,,,,,,,,,,,,,,,
﻿,,11.4734,,,,,,,,,SESSION,,,,,,,,,,,,,,,,,67acd0613d7ac65fd6711f58,,,,,,,2024.2.4,,,,2025-04-09_08h00.19.949,,,,2025-04-09_08h00.35.683,,,,,,,,,,,,,,,,,,,,,,,,,,,,,,,,,0.0002,,640308,,,,,test3103025,Win32,,,,,,,,test,,,,,,59.88023952,,,640308,,English,,,,,,,,,,,,,,,,,,
﻿,,,,,,,,,,,SESSION,[8.308800000000275],,,,,,3,yellow,"[""poly_0_train"",""poly_0_train""]",[1],,0,,,,,67acd0613d7ac65fd6711f58,,[0],,,[-69.60000610351562],,2024.2.4,,poly_1_surprise_relavent,,2025-04-09_08h00.19.949,,,,2025-04-09_08h00.35.683,,,,,,resources/pots/yellow_green.jpg,,,13.5058,,,green,,,11.5075,41.7787,0,,,,,,1,,,poly_1,,21.8216,,,13.5065,,,,640308,[0],21.821,,1,test3103025,Win32,,,,,,,,test,,[0],,poly_1_train,flower,59.88023952,,,640308,,English,,[-344.79998779296875],poly_1_surprise,,,,,,0,,,,,,,,,
﻿,,,,,,,,,,,SESSION,[4.581399999999903],,,,,,5,red,"[""poly_3_train"",""poly_3_train""]",[1],,0,,,,,67acd0613d7ac65fd6711f58,,[0],,,[-129.60003662109375],,2024.2.4,,poly_3_surprise_relavent,,2025-04-09_08h00.19.949,,,,2025-04-09_08h00.35.683,,,,,,resources/pots/red_deepblue.jpg,,,43.7776,,,deepblue,,,41.7798,53.9911,1,,,,,,1,,,poly_0,,48.3596,,,43.7778,,,,640308,[0],48.3594,,1,test3103025,Win32,,,,,,,,test,,[0],,poly_0_train,flower,59.88023952,,,640308,,English,,[323.2000732421875],poly_0_surprise,,,,,,1,,,,,,,,,
﻿,,,,,,,,,,,SESSION,[10.763399999999905],,,,,,1,lightblue,"[""poly_0_train"",""poly_0_train""]",[1],,0,,,,,67acd0613d7ac65fd6711f58,,[0],,,[-80.79998779296875],,2024.2.4,,poly_2_surprise_relavent,,2025-04-09_08h00.19.949,,,,2025-04-09_08h00.35.683,,,,,,resources/pots/lightblue_purple.jpg,,,55.9898,,,purple,,,53.9926,75.6502,2,,,,,,1,,,poly_2,,66.7542,,,55.99,,,,640308,[0],66.7537,,1,test3103025,Win32,,,,,,,,test,,[0],,poly_2_train,flower,59.88023952,,,640308,,English,,[-260.79998779296875],poly_2_surprise,,,,,,2,,,,,,,,,
﻿,,,,,,,,,,,SESSION,[40.28569999999972],,,,,,0,green,"[""poly_3_train"",""poly_3_train""]",[1],,0,,,,,67acd0613d7ac65fd6711f58,,[1],,,[-120],,2024.2.4,,poly_2_surprise_relavent,,2025-04-09_08h00.19.949,,,,2025-04-09_08h00.35.683,,,,,,resources/pots/green_purple.jpg,,,77.6499,,,purple,,,75.6516,117.9374,3,,,,,,1,,,poly_3,,117.9372,,,77.6503,,,,640308,[0],117.9365,,1,test3103025,Win32,,,,,,,,test,,[0],,poly_3_train,flower,59.88023952,,,640308,,English,,[344.800048828125],poly_3_surprise,,,,,,3,,,,,,,,,
﻿,,,,,,,,,,,SESSION,[1.4998000000002776],,,,,,6,lightblue,"[""poly_3_train"",""poly_3_train""]",[1],,0,,,,,67acd0613d7ac65fd6711f58,,[0],,,[-116],,2024.2.4,,poly_0_surprise_relavent,,2025-04-09_08h00.19.949,,,,2025-04-09_08h00.35.683,,,,,,resources/pots/lightblue_orange.jpg,,,119.9345,,,orange,,,117.938,130.632,4,,,,,,1,,,poly_2,,121.4349,,,119.9346,,,,640308,[0],121.4346,,1,test3103025,Win32,,,,,,,,test,,[0],,poly_2_train,flower,59.88023952,,,640308,,English,,[328.800048828125],poly_2_surprise,,,,,,4,,,,,,,,,
﻿,,,,,,,,,,,SESSION,[26.824000000000012],,,,,,2,red,"[""poly_0_train"",""poly_0_train""]",[1],,0,,,,,67acd0613d7ac65fd6711f58,,[1],,,[-92],,2024.2.4,,poly_2_surprise_relavent,,2025-04-09_08h00.19.949,,,,2025-04-09_08h00.35.683,,,,,,resources/pots/red_purple.jpg,,,132.6304,,,purple,,,130.6338,159.4548,5,,,,,,1,,,poly_0,,159.4548,,,132.6304,,,,640308,[0],159.4546,,1,test3103025,Win32,,,,,,,,test,,[0],,poly_0_train,flower,59.88023952,,,640308,,English,,[-300.79998779296875],poly_0_surprise,,,,,,5,,,,,,,,,
﻿,,,,,,,,,,,SESSION,[0.949300000000278],,,,,,9,red,"[""poly_0_train"",""poly_0_train""]",[1],,0,,,,,67acd0613d7ac65fd6711f58,,[1],,,[-92],,2024.2.4,,poly_1_surprise_relavent,,2025-04-09_08h00.19.949,,,,2025-04-09_08h00.35.683,,,,,,resources/pots/red_green.jpg,,,161.454,,,green,,,159.4553,162.4038,6,,,,,,1,,,poly_0,,162.4037,,,161.4541,,,,640308,[0],162.4036,,1,test3103025,Win32,,,,,,,,test,,[0],,poly_0_train,flower,59.88023952,,,640308,,English,,[-300.79998779296875],poly_0_surprise,,,,,,6,,,,,,,,,
﻿,,,,,,,,,,,SESSION,[1.6818999999998994],,,,,,7,green,"[""poly_3_train"",""poly_3_train""]",[1],,0,,,,,67acd0613d7ac65fd6711f58,,[1],,,[-92],,2024.2.4,,poly_3_surprise_relavent,,2025-04-09_08h00.19.949,,,,2025-04-09_08h00.35.683,,,,,,resources/pots/green_deepblue.jpg,,,164.4034,,,deepblue,,,162.4041,166.086,7,,,,,,1,,,poly_3,,166.086,,,164.4038,,,,640308,[0],166.0858,,1,test3103025,Win32,,,,,,,,test,,[0],,poly_3_train,flower,59.88023952,,,640308,,English,,[316],poly_3_surprise,,,,,,7,,,,,,,,,
﻿,,,,,,,,,,,SESSION,[1.3831000000000984],,,,,,8,yellow,"[""poly_1_train"",""poly_1_train""]",[1],,0,,,,,67acd0613d7ac65fd6711f58,,[1],,,[-122.4000244140625],,2024.2.4,,poly_1_surprise_relavent,,2025-04-09_08h00.19.949,,,,2025-04-09_08h00.35.683,,,,,,resources/pots/yellow_green.jpg,,,168.0848,,,green,,,166.0864,169.4685,8,,,,,,1,,,poly_1,,169.4684,,,168.0849,,,,640308,[0],169.4682,,1,test3103025,Win32,,,,,,,,test,,[0],,poly_1_train,flower,59.88023952,,,640308,,English,,[-69.5999755859375],poly_1_surprise,,,,,,8,,,,,,,,,
﻿,,,,,,,,,,,SESSION,[],,,,,,4,red,[],[],,0,,,,,67acd0613d7ac65fd6711f58,,[],,,[],,2024.2.4,,poly_3_surprise_relavent,,2025-04-09_08h00.19.949,,,,2025-04-09_08h00.35.683,,,,,,resources/pots/red_deepblue.jpg,,,169.4693,,,deepblue,,,169.4692,169.4698,9,,,,,,1,,,poly_0,,169.4697,,,169.4695,,,,640308,[],169.4696,,1,test3103025,Win32,,,,,,,,test,,[],,poly_0_train,flower,59.88023952,,,640308,,English,,[],poly_0_surprise,,,,,,9,,,,,,,,,
