conf_mouse.y,vase_color,end_thanks.started,relevent,surprise_irrelavent_mouse.leftButton,mouse_random.time,mouse_random.midButton,confidence_question.stopped,__participant,response_box_trial.stopped,responce_box_train.started,trial_mouse.time,trial_mouse.leftButton,mouse_random.clicked_name,relevant_object,train.started,surprise_loop.ran,surprise_relavent_mouse.clicked_name,response_box_trial.started,surprise_irrelavent_mouse.rightButton,flower_color,trial_mouse.corr,mouse_random.corr,done_read_finish_train.keys,surprise_irrelavent_mouse.y,surprise_irrelavent_mouse.x,language,conf_mouse.midButton,conf_mouse_irrellevant.y,surprise.stopped,response_box_relavent_surprise.stopped,conf_mouse.clicked_name,instructions.started,__session,responce_box_train.stopped,trials.thisIndex,done_read_finish_train.duration,conf_mouse_irrellevant.leftButton,trial_mouse.y,instructions.stopped,surprise_loop.thisIndex,surprise_relavent_mouse.corr,frameRate,conf_mouse_irrellevant.clicked_name,trials.thisTrialN,mouse_random.y,surprise_irrelavent_mouse.clicked_name,surprise_relavent_mouse.rightButton,training.thisN,trial_mouse.rightButton,confidence_question.started,conf_mouse_irrellevant.x,training.thisTrialN,training.ran,surprise_relavent_mouse.time,trial_mouse.midButton,mouse_random.rightButton,trials.ran,conf_mouse_irrellevant.midButton,__datetime,train_mouse.midButton,done_read_finish_train.rt,random_task.started,conf_mouse.leftButton,surprise_loop.thisN,finish_train.stopped,participant,mouse_random.x,train_mouse.time,conf_mouse.x,random_task.stopped,surprise_loop.thisRepN,surprise.started,trials.thisN,pot_duration,confidence_in_irrelavent.stopped,trials.thisRepN,prolific_id,training.thisIndex,wrong_answer_train.started,trial_mouse.x,surprise_loop.thisTrialN,training.thisRepN,psychopyVersion,train_mouse.corr,OS,train_mouse.leftButton,expName,surprise_irrelavent_mouse.midButton,pot_image_file,finish_train.started,conf_mouse_irrellevant.time,surprise_relavent_mouse.x,conf_mouse.rightButton,trial.started,conf_mouse.time,ori,surprise_irrelavent_mouse.time,trial.stopped,response_box_relavent_surprise.started,surprise_relavent_mouse.y,response_box_surprise.stopped,train_mouse.rightButton,surprise_relavent_mouse.midButton,irrelevent_surprise,confidence_in_irrelavent.started,date,train_mouse.clicked_name,response_box_surprise.started,surprise_relavent,trial_mouse.clicked_name,__experimentName,conf_mouse_irrellevant.rightButton,relevent_train,train_mouse.x,surprise_irrelavent_mouse.corr,end_thanks.stopped,train_mouse.y,surprise_relavent_mouse.leftButton,mouse_random.leftButton,train.stopped,wrong_answer_train.stopped
﻿,,,,,,,,247697,,,,,,,,,,,,,,,,,,English,,,,,,0.0006,SESSION,,,,,,14.8665,,,60.24096386,,,,,,,,,,,,,,,,,2025-05-05_02h10.08.842,,,,,,,247697,,,,,,,,,,,67e97d506e0dfa7ff0b407c5,,,,,,2024.2.4,,Win32,,test3103025,,,,,,,,,,,,,,,,,,,2025-05-05_02h10.49.333,,,,,rotating_iia,,,,,,,,,,
﻿,orange,,poly_0,,,,,247697,,16.9307,,,,vase,14.9262,,,,,green,,,,,,English,,,,,,,SESSION,19.1811,,,,,,,,60.24096386,,,,,,0,,,,0,1,,,,,,2025-05-05_02h10.08.842,[0],,,,,,247697,,[2.2450000000000045],,,,,,1,,,67e97d506e0dfa7ff0b407c5,1,19.1823,,,0,2024.2.4,[0],Win32,[1],test3103025,,resources/pots/green_orange.jpg,,,,,,,90,,,,,,[0],,poly_0_surprise,,2025-05-05_02h10.49.333,"[""poly_1_train"",""poly_1_train""]",,poly_3_surprise_relavent,,rotating_iia,,poly_0_train,[-67],,,[-107],,,16.9287,24.3445
﻿,orange,,poly_0,,,,,247697,,26.3435,,,,vase,24.3478,,,,,yellow,,,,,,English,,,,,,,SESSION,28.2442,,,,,,,,60.24096386,,,,,,1,,,,1,1,,,,,,2025-05-05_02h10.08.842,[0],,,,,,247697,,[1.9000999999940404],,,,,,1,,,67e97d506e0dfa7ff0b407c5,5,28.2465,,,0,2024.2.4,[1],Win32,[1],test3103025,,resources/pots/yellow_orange.jpg,,,,,,,180,,,,,,[0],,poly_0_surprise,,2025-05-05_02h10.49.333,"[""poly_0_train"",""poly_0_train""]",,poly_1_surprise_relavent,,rotating_iia,,poly_0_train,[-282],,,[-85],,,26.343,28.2469
﻿,deepblue,,poly_3,,,,,247697,,30.2432,,,,vase,28.2484,,,,,red,,,,,,English,,,,,,,SESSION,31.3428,,,,,,,,60.24096386,,,,,,2,,,,2,1,,,,,,2025-05-05_02h10.08.842,[0],,,,,,247697,,[1.0988999999910618],,,,,,1,,,67e97d506e0dfa7ff0b407c5,7,31.3432,,,0,2024.2.4,[1],Win32,[1],test3103025,,resources/pots/red_deepblue.jpg,,,,,,,270,,,,,,[0],,poly_3_surprise,,2025-05-05_02h10.49.333,"[""poly_3_train"",""poly_3_train""]",,poly_0_surprise_relavent,,rotating_iia,,poly_3_train,[272],,,[-118],,,30.2428,31.3434
﻿,deepblue,,poly_3,,,,,247697,,33.3427,,,,vase,31.3459,,,,,yellow,,,,,,English,,,,,,,SESSION,33.9433,,,,,,,,60.24096386,,,,,,3,,,,3,1,,,,,,2025-05-05_02h10.08.842,[0],,,,,,247697,,[0.5999999999999943],,,,,,1,,,67e97d506e0dfa7ff0b407c5,3,33.944,,,0,2024.2.4,[1],Win32,[1],test3103025,,resources/pots/yellow_deepblue.jpg,,,,,,,45,,,,,,[0],,poly_3_surprise,,2025-05-05_02h10.49.333,"[""poly_3_train"",""poly_3_train""]",,poly_1_surprise_relavent,,rotating_iia,,poly_3_train,[269],,,[-115],,,33.3423,33.9446
﻿,green,,poly_1,,,,,247697,,35.9436,,,,vase,33.9465,,,,,lightblue,,,,,,English,,,,,,,SESSION,36.7108,,,,,,,,60.24096386,,,,,,4,,,,4,1,,,,,,2025-05-05_02h10.08.842,[0],,,,,,247697,,[0.7665000000000077],,,,,,1,,,67e97d506e0dfa7ff0b407c5,2,36.7124,,,0,2024.2.4,[1],Win32,[1],test3103025,,resources/pots/lightblue_green.jpg,,,,,,,45,,,,,,[0],,poly_1_surprise,,2025-05-05_02h10.49.333,"[""poly_1_train"",""poly_1_train""]",,poly_2_surprise_relavent,,rotating_iia,,poly_1_train,[-98],,,[-111],,,35.9431,36.7128
﻿,purple,,poly_2,,,,,247697,,36.7144,,,,vase,36.714,,,,,lightblue,,,,,,English,,,,,,,SESSION,36.7148,,,,,,,,60.24096386,,,,,,5,,,,5,1,,,,,,2025-05-05_02h10.08.842,[],,,,,,247697,,[],,,,,,1,,,67e97d506e0dfa7ff0b407c5,8,36.7151,,,0,2024.2.4,[],Win32,[],test3103025,,resources/pots/lightblue_purple.jpg,,,,,,,270,,,,,,[],,poly_2_surprise,,2025-05-05_02h10.49.333,[],,poly_2_surprise_relavent,,rotating_iia,,poly_2_train,[],,,[],,,36.7141,36.7152
﻿,deepblue,,poly_3,,,,,247697,,36.7167,,,,vase,36.7164,,,,,green,,,,,,English,,,,,,,SESSION,36.7169,,,,,,,,60.24096386,,,,,,6,,,,6,1,,,,,,2025-05-05_02h10.08.842,[],,,,,,247697,,[],,,,,,1,,,67e97d506e0dfa7ff0b407c5,4,36.7171,,,0,2024.2.4,[],Win32,[],test3103025,,resources/pots/green_deepblue.jpg,,,,,,,0,,,,,,[],,poly_3_surprise,,2025-05-05_02h10.49.333,[],,poly_3_surprise_relavent,,rotating_iia,,poly_3_train,[],,,[],,,36.7164,36.7174
﻿,green,,poly_1,,,,,247697,,36.7191,,,,vase,36.7186,,,,,red,,,,,,English,,,,,,,SESSION,36.7193,,,,,,,,60.24096386,,,,,,7,,,,7,1,,,,,,2025-05-05_02h10.08.842,[],,,,,,247697,,[],,,,,,1,,,67e97d506e0dfa7ff0b407c5,6,36.7196,,,0,2024.2.4,[],Win32,[],test3103025,,resources/pots/red_green.jpg,,,,,,,225,,,,,,[],,poly_1_surprise,,2025-05-05_02h10.49.333,[],,poly_0_surprise_relavent,,rotating_iia,,poly_1_train,[],,,[],,,36.7187,36.7198
﻿,green,,poly_1,,,,,247697,,36.7215,,,,vase,36.7211,,,,,yellow,,,,,,English,,,,,,,SESSION,36.7218,,,,,,,,60.24096386,,,,,,8,,,,8,1,,,,,,2025-05-05_02h10.08.842,[],,,,,,247697,,[],,,,,,1,,,67e97d506e0dfa7ff0b407c5,9,36.722,,,0,2024.2.4,[],Win32,[],test3103025,,resources/pots/yellow_green.jpg,,,,,,,270,,,,,,[],,poly_1_surprise,,2025-05-05_02h10.49.333,[],,poly_1_surprise_relavent,,rotating_iia,,poly_1_train,[],,,[],,,36.7212,36.722
﻿,green,,poly_1,,,,,247697,,36.7234,,,,vase,36.723,,,,,yellow,,,,,,English,,,,,,,SESSION,36.7236,,,,,,,,60.24096386,,,,,,9,,,,9,1,,,,,,2025-05-05_02h10.08.842,[],,,,,,247697,,[],,,,,,1,,,67e97d506e0dfa7ff0b407c5,0,36.7238,,,0,2024.2.4,[],Win32,[],test3103025,,resources/pots/yellow_green.jpg,,,,,,,0,,,,,,[],,poly_1_surprise,,2025-05-05_02h10.49.333,[],,poly_1_surprise_relavent,,rotating_iia,,poly_1_train,[],,,[],,,36.7231,36.7239
﻿,,,,,,,,247697,,,,,,,,,,,,,,,space,,,English,,,,,,,SESSION,,,,,,,,,60.24096386,,,,,,,,,,,,,,,,,2025-05-05_02h10.08.842,,5.0363,,,,41.8079,247697,,,,,,,,,,,67e97d506e0dfa7ff0b407c5,,,,,,2024.2.4,,Win32,,test3103025,,,36.7265,,,,,,,,,,,,,,,,2025-05-05_02h10.49.333,,,,,rotating_iia,,,,,,,,,,
﻿[-105],deepblue,,poly_3,,[],[],51.2253,247697,44.5148,,[0.676800000011923],[1],[],vase,,,,43.8339,,green,[1],[],,,,English,[0],,,,"[""Memory"",""Memory""]",,SESSION,,21,,,[-96],,,,60.24096386,,0,[],,,,[0],44.5156,,,,,[0],[],1,,2025-05-05_02h10.08.842,,,43.8312,[1],,,247697,[],,[-84],43.8332,,,0,1,,0,67e97d506e0dfa7ff0b407c5,,,[330],,,2024.2.4,,Win32,,test3103025,,resources/pots/green_deepblue.jpg,,,,[0],41.8333,[6.7072000000029846],225,,43.8304,,,,,,poly_3_surprise,,2025-05-05_02h10.49.333,,,poly_3_surprise_relavent,"[""poly_3"",""poly_3""]",rotating_iia,,poly_3_train,,,,,,[],,
﻿[],purple,,poly_2,,[],[],54.04,247697,54.0396,,[0.8149999999999977],[1],[],vase,,,,53.2241,,lightblue,[1],[],,,,English,[],,,,[],,SESSION,,8,,,[-103],,,,60.24096386,,1,[],,,,[0],54.0397,,,,,[0],[],1,,2025-05-05_02h10.08.842,,,53.2234,[],,,247697,[],,[],53.2235,,,1,1,,0,67e97d506e0dfa7ff0b407c5,,,[93],,,2024.2.4,,Win32,,test3103025,,resources/pots/lightblue_purple.jpg,,,,[],51.2277,[],315,,53.2232,,,,,,poly_2_surprise,,2025-05-05_02h10.49.333,,,poly_2_surprise_relavent,"[""poly_2"",""poly_2""]",rotating_iia,,poly_2_train,,,,,,[],,
﻿[],green,,poly_1,,[],[],56.8067,247697,56.8059,,[0.7654000000059682],[1],[],vase,,,,56.0399,,yellow,[1],[],,,,English,[],,,,[],,SESSION,,9,,,[-108],,,,60.24096386,,2,[],,,,[0],56.8063,,,,,[0],[],1,,2025-05-05_02h10.08.842,,,56.0392,[],,,247697,[],,[],56.0394,,,2,1,,0,67e97d506e0dfa7ff0b407c5,,,[-85],,,2024.2.4,,Win32,,test3103025,,resources/pots/yellow_green.jpg,,,,[],54.042,[],45,,56.0392,,,,,,poly_1_surprise,,2025-05-05_02h10.49.333,,,poly_1_surprise_relavent,"[""poly_1"",""poly_1""]",rotating_iia,,poly_1_train,,,,,,[],,
﻿[],purple,,poly_2,,[],[],59.5907,247697,59.5904,,[0.783200000002978],[1],[],vase,,,,58.8068,,red,[1],[],,,,English,[],,,,[],,SESSION,,11,,,[-111],,,,60.24096386,,3,[],,,,[0],59.5905,,,,,[0],[],1,,2025-05-05_02h10.08.842,,,58.8061,[],,,247697,[],,[],58.8063,,,3,1,,0,67e97d506e0dfa7ff0b407c5,,,[87],,,2024.2.4,,Win32,,test3103025,,resources/pots/red_purple.jpg,,,,[],56.8078,[],45,,58.8059,,,,,,poly_2_surprise,,2025-05-05_02h10.49.333,,,poly_0_surprise_relavent,"[""poly_2"",""poly_2""]",rotating_iia,,poly_2_train,,,,,,[],,
﻿[-103],purple,,poly_2,,[],[],63.3389,247697,62.1218,,[0.5329000000059523],[1],[],vase,,,,61.5886,,green,[1],[],,,,English,[0],,,,"[""Memory"",""Memory""]",,SESSION,,40,,,[-115],,,,60.24096386,,4,[],,,,[0],62.122,,,,,[0],[],1,,2025-05-05_02h10.08.842,,,61.5881,[1],,,247697,[],,[-80],61.5884,,,4,1,,0,67e97d506e0dfa7ff0b407c5,,,[88],,,2024.2.4,,Win32,,test3103025,,resources/pots/green_purple.jpg,,,,[0],59.5933,[1.2162999999970054],90,,61.5881,,,,,,poly_2_surprise,,2025-05-05_02h10.49.333,,,poly_3_surprise_relavent,"[""poly_2"",""poly_2""]",rotating_iia,,poly_2_train,,,,,,[],,
﻿[],purple,,poly_2,,[],[],65.9907,247697,65.9895,,[0.64970000000298],[1],[],vase,,,,65.3392,,red,[1],[],,,,English,[],,,,[],,SESSION,,36,,,[-125],,,,60.24096386,,5,[],,,,[0],65.9897,,,,,[0],[],1,,2025-05-05_02h10.08.842,,,65.3383,[],,,247697,[],,[],65.3387,,,5,1,,0,67e97d506e0dfa7ff0b407c5,,,[92],,,2024.2.4,,Win32,,test3103025,,resources/pots/red_purple.jpg,,,,[],63.3415,[],135,,65.3381,,,,,,poly_2_surprise,,2025-05-05_02h10.49.333,,,poly_0_surprise_relavent,"[""poly_2"",""poly_2""]",rotating_iia,,poly_2_train,,,,,,[],,
﻿[],orange,,poly_0,,[],[],69.2389,247697,69.2386,,[1.2492000000029861],[1],[],vase,,,,67.989,,lightblue,[1],[],,,,English,[],,,,[],,SESSION,,30,,,[-102],,,,60.24096386,,6,[],,,,[0],69.2387,,,,,[0],[],1,,2025-05-05_02h10.08.842,,,67.9882,[],,,247697,[],,[],67.9884,,,6,1,,0,67e97d506e0dfa7ff0b407c5,,,[-267],,,2024.2.4,,Win32,,test3103025,,resources/pots/lightblue_orange.jpg,,,,[],65.9922,[],45,,67.988,,,,,,poly_0_surprise,,2025-05-05_02h10.49.333,,,poly_2_surprise_relavent,"[""poly_0"",""poly_0""]",rotating_iia,,poly_0_train,,,,,,[],,
﻿[-105],purple,,poly_2,,[],[],72.9384,247697,71.8572,,[0.6178999999910673],[1],[],vase,,,,71.238,,red,[1],[],,,,English,[0],,,,"[""Memory"",""Memory""]",,SESSION,,38,,,[-122],,,,60.24096386,,7,[],,,,[0],71.8578,,,,,[0],[],1,,2025-05-05_02h10.08.842,,,71.2374,[1],,,247697,[],,[-127],71.2376,,,7,1,,0,67e97d506e0dfa7ff0b407c5,,,[91],,,2024.2.4,,Win32,,test3103025,,resources/pots/red_purple.jpg,,,,[0],69.2409,[1.080200000002975],270,,71.2373,,,,,,poly_2_surprise,,2025-05-05_02h10.49.333,,,poly_0_surprise_relavent,"[""poly_2"",""poly_2""]",rotating_iia,,poly_2_train,,,,,,[],,
﻿[],deepblue,,poly_3,,[],[],75.8107,247697,75.8101,,[0.8707000000029836],[1],[],vase,,,,74.939,,red,[1],[],,,,English,[],,,,[],,SESSION,,7,,,[-125],,,,60.24096386,,8,[],,,,[0],75.8103,,,,,[0],[],1,,2025-05-05_02h10.08.842,,,74.9382,[],,,247697,[],,[],74.9387,,,8,1,,0,67e97d506e0dfa7ff0b407c5,,,[278],,,2024.2.4,,Win32,,test3103025,,resources/pots/red_deepblue.jpg,,,,[],72.9409,[],180,,74.9381,,,,,,poly_3_surprise,,2025-05-05_02h10.49.333,,,poly_0_surprise_relavent,"[""poly_3"",""poly_3""]",rotating_iia,,poly_3_train,,,,,,[],,
﻿[],deepblue,,poly_3,,[],[],78.2104,247697,78.2098,,[0.39959999999405227],[1],[],vase,,,,77.8096,,red,[1],[],,,,English,[],,,,[],,SESSION,,12,,,[-119],,,,60.24096386,,9,[],,,,[0],78.21,,,,,[0],[],1,,2025-05-05_02h10.08.842,,,77.8086,[],,,247697,[],,[],77.8091,,,9,1,,0,67e97d506e0dfa7ff0b407c5,,,[270],,,2024.2.4,,Win32,,test3103025,,resources/pots/red_deepblue.jpg,,,,[],75.8124,[],225,,77.8085,,,,,,poly_3_surprise,,2025-05-05_02h10.49.333,,,poly_0_surprise_relavent,"[""poly_3"",""poly_3""]",rotating_iia,,poly_3_train,,,,,,[],,
﻿[],orange,,poly_0,,[],[],81.0698,247697,81.0694,,[0.8662000000029764],[1],[],vase,,,,80.2029,,yellow,[1],[],,,,English,[],,,,[],,SESSION,,28,,,[-86],,,,60.24096386,,10,[],,,,[0],81.0695,,,,,[0],[],1,,2025-05-05_02h10.08.842,,,80.2025,[],,,247697,[],,[],80.2026,,,10,1,,0,67e97d506e0dfa7ff0b407c5,,,[-254],,,2024.2.4,,Win32,,test3103025,,resources/pots/yellow_orange.jpg,,,,[],78.2116,[],180,,80.2025,,,,,,poly_0_surprise,,2025-05-05_02h10.49.333,,,poly_1_surprise_relavent,"[""poly_0"",""poly_0""]",rotating_iia,,poly_0_train,,,,,,[],,
﻿[],purple,,poly_2,,[],[],83.8535,247697,83.8529,,[0.7824999999999989],[1],[],vase,,,,83.07,,lightblue,[1],[],,,,English,[],,,,[],,SESSION,,17,,,[-107],,,,60.24096386,,11,[],,,,[0],83.8531,,,,,[0],[],1,,2025-05-05_02h10.08.842,,,83.0694,[],,,247697,[],,[],83.0695,,,11,1,,0,67e97d506e0dfa7ff0b407c5,,,[93],,,2024.2.4,,Win32,,test3103025,,resources/pots/lightblue_purple.jpg,,,,[],81.0722,[],90,,83.0692,,,,,,poly_2_surprise,,2025-05-05_02h10.49.333,,,poly_2_surprise_relavent,"[""poly_2"",""poly_2""]",rotating_iia,,poly_2_train,,,,,,[],,
﻿[],green,,poly_1,,[],[],86.5191,247697,86.5186,,[0.6648999999910643],[1],[],vase,,,,85.8535,,lightblue,[1],[],,,,English,[],,,,[],,SESSION,,29,,,[-103],,,,60.24096386,,12,[],,,,[0],86.5188,,,,,[0],[],1,,2025-05-05_02h10.08.842,,,85.8524,[],,,247697,[],,[],85.8526,,,12,1,,0,67e97d506e0dfa7ff0b407c5,,,[-144],,,2024.2.4,,Win32,,test3103025,,resources/pots/lightblue_green.jpg,,,,[],83.8559,[],270,,85.8522,,,,,,poly_1_surprise,,2025-05-05_02h10.49.333,,,poly_2_surprise_relavent,"[""poly_1"",""poly_1""]",rotating_iia,,poly_1_train,,,,,,[],,
﻿[-101],deepblue,,poly_3,,[],[],90.9852,247697,89.3687,,[0.8464999999999918],[1],[],vase,,,,88.521,,red,[1],[],,,,English,[0],,,,"[""Memory"",""Memory""]",,SESSION,,10,,,[-112],,,,60.24096386,,13,[],,,,[0],89.3689,,,,,[0],[],1,,2025-05-05_02h10.08.842,,,88.5197,[1],,,247697,[],,[-99],88.52,,,13,1,,0,67e97d506e0dfa7ff0b407c5,,,[343],,,2024.2.4,,Win32,,test3103025,,resources/pots/red_deepblue.jpg,,,,[0],86.5213,[1.615599999994032],45,,88.5196,,,,,,poly_3_surprise,,2025-05-05_02h10.49.333,,,poly_0_surprise_relavent,"[""poly_3"",""poly_3""]",rotating_iia,,poly_3_train,,,,,,[],,
﻿[],green,,poly_1,,[],[],93.7746,247697,93.7743,,[0.7871000000089339],[1],[],vase,,,,92.9867,,lightblue,[1],[],,,,English,[],,,,[],,SESSION,,16,,,[-110],,,,60.24096386,,14,[],,,,[0],93.7744,,,,,[0],[],1,,2025-05-05_02h10.08.842,,,92.9859,[],,,247697,[],,[],92.9861,,,14,1,,0,67e97d506e0dfa7ff0b407c5,,,[-69],,,2024.2.4,,Win32,,test3103025,,resources/pots/lightblue_green.jpg,,,,[],90.9875,[],0,,92.9859,,,,,,poly_1_surprise,,2025-05-05_02h10.49.333,,,poly_2_surprise_relavent,"[""poly_1"",""poly_1""]",rotating_iia,,poly_1_train,,,,,,[],,
﻿[],green,,poly_1,,[],[],96.6685,247697,96.6678,,[0.8992000000029634],[1],[],vase,,,,95.7681,,red,[1],[],,,,English,[],,,,[],,SESSION,,20,,,[-106],,,,60.24096386,,15,[],,,,[0],96.6679,,,,,[0],[],1,,2025-05-05_02h10.08.842,,,95.7675,[],,,247697,[],,[],95.7678,,,15,1,,0,67e97d506e0dfa7ff0b407c5,,,[-63],,,2024.2.4,,Win32,,test3103025,,resources/pots/red_green.jpg,,,,[],93.7758,[],180,,95.7674,,,,,,poly_1_surprise,,2025-05-05_02h10.49.333,,,poly_0_surprise_relavent,"[""poly_1"",""poly_1""]",rotating_iia,,poly_1_train,,,,,,[],,
﻿[],deepblue,,poly_3,,[],[],99.2516,247697,99.2508,,[0.5818999999910659],[1],[],vase,,,,98.6685,,red,[1],[],,,,English,[],,,,[],,SESSION,,18,,,[-113],,,,60.24096386,,16,[],,,,[0],99.2509,,,,,[0],[],1,,2025-05-05_02h10.08.842,,,98.6682,[],,,247697,[],,[],98.6683,,,16,1,,0,67e97d506e0dfa7ff0b407c5,,,[294],,,2024.2.4,,Win32,,test3103025,,resources/pots/red_deepblue.jpg,,,,[],96.671,[],0,,98.6681,,,,,,poly_3_surprise,,2025-05-05_02h10.49.333,,,poly_0_surprise_relavent,"[""poly_3"",""poly_3""]",rotating_iia,,poly_3_train,,,,,,[],,
﻿[],deepblue,,poly_3,,[],[],101.8011,247697,101.8004,,[0.5489999999999782],[1],[],vase,,,,101.2508,,green,[1],[],,,,English,[],,,,[],,SESSION,,37,,,[-115],,,,60.24096386,,17,[],,,,[0],101.8005,,,,,[0],[],1,,2025-05-05_02h10.08.842,,,101.2503,[],,,247697,[],,[],101.2505,,,17,1,,0,67e97d506e0dfa7ff0b407c5,,,[291],,,2024.2.4,,Win32,,test3103025,,resources/pots/green_deepblue.jpg,,,,[],99.2544,[],180,,101.2502,,,,,,poly_3_surprise,,2025-05-05_02h10.49.333,,,poly_3_surprise_relavent,"[""poly_3"",""poly_3""]",rotating_iia,,poly_3_train,,,,,,[],,
﻿[],green,,poly_1,,[],[],104.5351,247697,104.5343,,[0.7340999999940436],[1],[],vase,,,,103.7999,,yellow,[1],[],,,,English,[],,,,[],,SESSION,,26,,,[-108],,,,60.24096386,,18,[],,,,[0],104.5344,,,,,[0],[],1,,2025-05-05_02h10.08.842,,,103.7995,[],,,247697,[],,[],103.7996,,,18,1,,0,67e97d506e0dfa7ff0b407c5,,,[-65],,,2024.2.4,,Win32,,test3103025,,resources/pots/yellow_green.jpg,,,,[],101.8036,[],135,,103.7994,,,,,,poly_1_surprise,,2025-05-05_02h10.49.333,,,poly_1_surprise_relavent,"[""poly_1"",""poly_1""]",rotating_iia,,poly_1_train,,,,,,[],,
﻿[],orange,,poly_0,,[],[],107.189,247697,107.1887,,[0.6537000000029991],[1],[],vase,,,,106.5346,,yellow,[1],[],,,,English,[],,,,[],,SESSION,,5,,,[-96],,,,60.24096386,,19,[],,,,[0],107.1889,,,,,[0],[],1,,2025-05-05_02h10.08.842,,,106.534,[],,,247697,[],,[],106.5344,,,19,1,,0,67e97d506e0dfa7ff0b407c5,,,[-293],,,2024.2.4,,Win32,,test3103025,,resources/pots/yellow_orange.jpg,,,,[],104.5372,[],315,,106.534,,,,,,poly_0_surprise,,2025-05-05_02h10.49.333,,,poly_1_surprise_relavent,"[""poly_0"",""poly_0""]",rotating_iia,,poly_0_train,,,,,,[],,
﻿[],green,,poly_1,,[],[],109.7837,247697,109.7827,,[0.5967999999970175],[1],[],vase,,,,109.1852,,lightblue,[1],[],,,,English,[],,,,[],,SESSION,,2,,,[-91],,,,60.24096386,,20,[],,,,[0],109.7829,,,,,[0],[],1,,2025-05-05_02h10.08.842,,,109.1837,[],,,247697,[],,[],109.1838,,,20,1,,0,67e97d506e0dfa7ff0b407c5,,,[-114],,,2024.2.4,,Win32,,test3103025,,resources/pots/lightblue_green.jpg,,,,[],107.1902,[],225,,109.1836,,,,,,poly_1_surprise,,2025-05-05_02h10.49.333,,,poly_2_surprise_relavent,"[""poly_1"",""poly_1""]",rotating_iia,,poly_1_train,,,,,,[],,
﻿[-111],orange,,poly_0,,[3.051599999994039],[0],123.8638,247697,122.3146,,[6.431299999997009],[1],"[""num_4"",""num_4""]",vase,,,,115.8827,,green,[1],[1],,,,English,[0],,,,"[""Memory"",""Memory""]",,SESSION,,24,,,[-105],,,,60.24096386,,21,[-110],,,,[0],122.3147,,,,,[0],[0],1,,2025-05-05_02h10.08.842,,,111.782,[1],,,247697,[49],,[-107],115.8821,,,21,1,,0,67e97d506e0dfa7ff0b407c5,,,[-299],,,2024.2.4,,Win32,,test3103025,,resources/pots/green_orange.jpg,,,,[0],109.7865,[1.5487000000029525],315,,111.782,,,,,,poly_0_surprise,,2025-05-05_02h10.49.333,,,poly_3_surprise_relavent,"[""poly_0"",""poly_0""]",rotating_iia,,poly_0_train,,,,,,[1],,
﻿[],deepblue,,poly_3,,[],[],126.4865,247697,126.486,,[0.6168000000119207],[1],[],vase,,,,125.869,,green,[1],[],,,,English,[],,,,[],,SESSION,,4,,,[-108],,,,60.24096386,,22,[],,,,[0],126.4862,,,,,[0],[],1,,2025-05-05_02h10.08.842,,,125.8684,[],,,247697,[],,[],125.8685,,,22,1,,0,67e97d506e0dfa7ff0b407c5,,,[291],,,2024.2.4,,Win32,,test3103025,,resources/pots/green_deepblue.jpg,,,,[],123.8662,[],315,,125.8684,,,,,,poly_3_surprise,,2025-05-05_02h10.49.333,,,poly_3_surprise_relavent,"[""poly_3"",""poly_3""]",rotating_iia,,poly_3_train,,,,,,[],,
﻿[],purple,,poly_2,,[],[],129.2821,247697,129.2814,,[0.7953999999910764],[1],[],vase,,,,128.4856,,green,[1],[],,,,English,[],,,,[],,SESSION,,27,,,[-118],,,,60.24096386,,23,[],,,,[0],129.2815,,,,,[0],[],1,,2025-05-05_02h10.08.842,,,128.485,[],,,247697,[],,[],128.4853,,,23,1,,0,67e97d506e0dfa7ff0b407c5,,,[115],,,2024.2.4,,Win32,,test3103025,,resources/pots/green_purple.jpg,,,,[],126.4877,[],135,,128.4849,,,,,,poly_2_surprise,,2025-05-05_02h10.49.333,,,poly_3_surprise_relavent,"[""poly_2"",""poly_2""]",rotating_iia,,poly_2_train,,,,,,[],,
﻿[-100],purple,,poly_2,,[],[],133.0863,247697,131.7485,,[0.4661999999880777],[1],[],vase,,,,131.2815,,green,[1],[],,,,English,[0],,,,"[""Memory"",""Memory""]",,SESSION,,14,,,[-118],,,,60.24096386,,24,[],,,,[0],131.7486,,,,,[0],[],1,,2025-05-05_02h10.08.842,,,131.2807,[1],,,247697,[],,[-68],131.2811,,,24,1,,0,67e97d506e0dfa7ff0b407c5,,,[117],,,2024.2.4,,Win32,,test3103025,,resources/pots/green_purple.jpg,,,,[0],129.2839,[1.33720000000298],135,,131.2804,,,,,,poly_2_surprise,,2025-05-05_02h10.49.333,,,poly_3_surprise_relavent,"[""poly_2"",""poly_2""]",rotating_iia,,poly_2_train,,,,,,[],,
﻿[],deepblue,,poly_3,,[],[],135.9464,247697,135.9459,,[0.8655999999940605],[1],[],vase,,,,135.0799,,yellow,[1],[],,,,English,[],,,,[],,SESSION,,3,,,[-111],,,,60.24096386,,25,[],,,,[0],135.946,,,,,[0],[],1,,2025-05-05_02h10.08.842,,,135.0793,[],,,247697,[],,[],135.0795,,,25,1,,0,67e97d506e0dfa7ff0b407c5,,,[274],,,2024.2.4,,Win32,,test3103025,,resources/pots/yellow_deepblue.jpg,,,,[],133.0875,[],0,,135.0792,,,,,,poly_3_surprise,,2025-05-05_02h10.49.333,,,poly_1_surprise_relavent,"[""poly_3"",""poly_3""]",rotating_iia,,poly_3_train,,,,,,[],,
﻿[],deepblue,,poly_3,,[],[],138.6629,247697,138.6623,,[0.7148999999910473],[1],[],vase,,,,137.9469,,green,[1],[],,,,English,[],,,,[],,SESSION,,22,,,[-102],,,,60.24096386,,26,[],,,,[0],138.6624,,,,,[0],[],1,,2025-05-05_02h10.08.842,,,137.9466,[],,,247697,[],,[],137.9467,,,26,1,,0,67e97d506e0dfa7ff0b407c5,,,[272],,,2024.2.4,,Win32,,test3103025,,resources/pots/green_deepblue.jpg,,,,[],135.949,[],90,,137.9465,,,,,,poly_3_surprise,,2025-05-05_02h10.49.333,,,poly_3_surprise_relavent,"[""poly_3"",""poly_3""]",rotating_iia,,poly_3_train,,,,,,[],,
﻿[-98],orange,,poly_0,,[],[],142.8116,247697,141.4114,,[0.74760000000893],[1],[],vase,,,,140.6635,,yellow,[1],[],,,,English,[0],,,,"[""Memory"",""Memory""]",,SESSION,,25,,,[-114],,,,60.24096386,,27,[],,,,[0],141.4115,,,,,[0],[],1,,2025-05-05_02h10.08.842,,,140.6628,[1],,,247697,[],,[-74],140.6631,,,27,1,,0,67e97d506e0dfa7ff0b407c5,,,[-294],,,2024.2.4,,Win32,,test3103025,,resources/pots/yellow_orange.jpg,,,,[0],138.6655,[1.3996000000089452],315,,140.6626,,,,,,poly_0_surprise,,2025-05-05_02h10.49.333,,,poly_1_surprise_relavent,"[""poly_0"",""poly_0""]",rotating_iia,,poly_0_train,,,,,,[],,
﻿[],deepblue,,poly_3,,[],[],145.4662,247697,145.466,,[0.6528000000119221],[1],[],vase,,,,144.813,,yellow,[1],[],,,,English,[],,,,[],,SESSION,,31,,,[-101],,,,60.24096386,,28,[],,,,[0],145.466,,,,,[0],[],1,,2025-05-05_02h10.08.842,,,144.8124,[],,,247697,[],,[],144.8126,,,28,1,,0,67e97d506e0dfa7ff0b407c5,,,[281],,,2024.2.4,,Win32,,test3103025,,resources/pots/yellow_deepblue.jpg,,,,[],142.8138,[],45,,144.8122,,,,,,poly_3_surprise,,2025-05-05_02h10.49.333,,,poly_1_surprise_relavent,"[""poly_3"",""poly_3""]",rotating_iia,,poly_3_train,,,,,,[],,
﻿[],purple,,poly_2,,[],[],148.1118,247697,148.1111,,[0.6465999999940379],[1],[],vase,,,,147.4626,,lightblue,[1],[],,,,English,[],,,,[],,SESSION,,34,,,[-124],,,,60.24096386,,29,[],,,,[0],148.1113,,,,,[0],[],1,,2025-05-05_02h10.08.842,,,147.4614,[],,,247697,[],,[],147.4618,,,29,1,,0,67e97d506e0dfa7ff0b407c5,,,[86],,,2024.2.4,,Win32,,test3103025,,resources/pots/lightblue_purple.jpg,,,,[],145.467,[],180,,147.4613,,,,,,poly_2_surprise,,2025-05-05_02h10.49.333,,,poly_2_surprise_relavent,"[""poly_2"",""poly_2""]",rotating_iia,,poly_2_train,,,,,,[],,
﻿[],green,,poly_1,,[],[],150.8782,247697,150.8774,,[0.7658999999910634],[1],[],vase,,,,150.1112,,yellow,[1],[],,,,English,[],,,,[],,SESSION,,0,,,[-108],,,,60.24096386,,30,[],,,,[0],150.8777,,,,,[0],[],1,,2025-05-05_02h10.08.842,,,150.1108,[],,,247697,[],,[],150.111,,,30,1,,0,67e97d506e0dfa7ff0b407c5,,,[-141],,,2024.2.4,,Win32,,test3103025,,resources/pots/yellow_green.jpg,,,,[],148.1146,[],45,,150.1108,,,,,,poly_1_surprise,,2025-05-05_02h10.49.333,,,poly_1_surprise_relavent,"[""poly_1"",""poly_1""]",rotating_iia,,poly_1_train,,,,,,[],,
﻿[],green,,poly_1,,[],[],153.4442,247697,153.4436,,[0.5659000000059393],[1],[],vase,,,,152.8772,,yellow,[1],[],,,,English,[],,,,[],,SESSION,,33,,,[-117],,,,60.24096386,,31,[],,,,[0],153.4437,,,,,[0],[],1,,2025-05-05_02h10.08.842,,,152.8768,[],,,247697,[],,[],152.877,,,31,1,,0,67e97d506e0dfa7ff0b407c5,,,[-99],,,2024.2.4,,Win32,,test3103025,,resources/pots/yellow_green.jpg,,,,[],150.881,[],0,,152.8767,,,,,,poly_1_surprise,,2025-05-05_02h10.49.333,,,poly_1_surprise_relavent,"[""poly_1"",""poly_1""]",rotating_iia,,poly_1_train,,,,,,[],,
﻿[],purple,,poly_2,,[],[],156.1106,247697,156.11,,[0.6657000000029711],[1],[],vase,,,,155.4437,,green,[1],[],,,,English,[],,,,[],,SESSION,,15,,,[-121],,,,60.24096386,,32,[],,,,[0],156.1101,,,,,[0],[],1,,2025-05-05_02h10.08.842,,,155.4431,[],,,247697,[],,[],155.4433,,,32,1,,0,67e97d506e0dfa7ff0b407c5,,,[65],,,2024.2.4,,Win32,,test3103025,,resources/pots/green_purple.jpg,,,,[],153.447,[],90,,155.443,,,,,,poly_2_surprise,,2025-05-05_02h10.49.333,,,poly_3_surprise_relavent,"[""poly_2"",""poly_2""]",rotating_iia,,poly_2_train,,,,,,[],,
﻿[],green,,poly_1,,[],[],159.1437,247697,159.1429,,[1.0327000000029898],[1],[],vase,,,,158.1099,,red,[1],[],,,,English,[],,,,[],,SESSION,,6,,,[-101],,,,60.24096386,,33,[],,,,[0],159.1432,,,,,[0],[],1,,2025-05-05_02h10.08.842,,,158.1094,[],,,247697,[],,[],158.1097,,,33,1,,0,67e97d506e0dfa7ff0b407c5,,,[-75],,,2024.2.4,,Win32,,test3103025,,resources/pots/red_green.jpg,,,,[],156.1133,[],45,,158.1093,,,,,,poly_1_surprise,,2025-05-05_02h10.49.333,,,poly_0_surprise_relavent,"[""poly_1"",""poly_1""]",rotating_iia,,poly_1_train,,,,,,[],,
﻿[-107],orange,,poly_0,,[],[],163.1267,247697,161.9084,,[0.7655999999940377],[1],[],vase,,,,161.1425,,green,[1],[],,,,English,[0],,,,"[""Memory"",""Memory""]",,SESSION,,1,,,[-88],,,,60.24096386,,34,[],,,,[0],161.9086,,,,,[0],[],1,,2025-05-05_02h10.08.842,,,161.142,[1],,,247697,[],,[-107],161.1421,,,34,1,,0,67e97d506e0dfa7ff0b407c5,,,[-297],,,2024.2.4,,Win32,,test3103025,,resources/pots/green_orange.jpg,,,,[0],159.1464,[1.217700000002992],90,,161.142,,,,,,poly_0_surprise,,2025-05-05_02h10.49.333,,,poly_3_surprise_relavent,"[""poly_0"",""poly_0""]",rotating_iia,,poly_0_train,,,,,,[],,
﻿[],orange,,poly_0,,[],[],165.9651,247697,165.9647,,[0.8379000000059591],[1],[],vase,,,,165.1266,,lightblue,[1],[],,,,English,[],,,,[],,SESSION,,41,,,[-88],,,,60.24096386,,35,[],,,,[0],165.9648,,,,,[0],[],1,,2025-05-05_02h10.08.842,,,165.1262,[],,,247697,[],,[],165.1263,,,35,1,,0,67e97d506e0dfa7ff0b407c5,,,[-265],,,2024.2.4,,Win32,,test3103025,,resources/pots/lightblue_orange.jpg,,,,[],163.1292,[],135,,165.126,,,,,,poly_0_surprise,,2025-05-05_02h10.49.333,,,poly_2_surprise_relavent,"[""poly_0"",""poly_0""]",rotating_iia,,poly_0_train,,,,,,[],,
﻿[],deepblue,,poly_3,,[],[],168.559,247697,168.5584,,[0.5973999999910689],[1],[],vase,,,,167.9597,,yellow,[1],[],,,,English,[],,,,[],,SESSION,,35,,,[-110],,,,60.24096386,,36,[],,,,[0],168.5585,,,,,[0],[],1,,2025-05-05_02h10.08.842,,,167.9591,[],,,247697,[],,[],167.9593,,,36,1,,0,67e97d506e0dfa7ff0b407c5,,,[305],,,2024.2.4,,Win32,,test3103025,,resources/pots/yellow_deepblue.jpg,,,,[],165.9663,[],315,,167.959,,,,,,poly_3_surprise,,2025-05-05_02h10.49.333,,,poly_1_surprise_relavent,"[""poly_3"",""poly_3""]",rotating_iia,,poly_3_train,,,,,,[],,
﻿[],orange,,poly_0,,[],[],171.2583,247697,171.2581,,[0.7000999999940234],[1],[],vase,,,,170.5579,,green,[1],[],,,,English,[],,,,[],,SESSION,,19,,,[-116],,,,60.24096386,,37,[],,,,[0],171.2582,,,,,[0],[],1,,2025-05-05_02h10.08.842,,,170.5576,[],,,247697,[],,[],170.5577,,,37,1,,0,67e97d506e0dfa7ff0b407c5,,,[-289],,,2024.2.4,,Win32,,test3103025,,resources/pots/green_orange.jpg,,,,[],168.5617,[],90,,170.5576,,,,,,poly_0_surprise,,2025-05-05_02h10.49.333,,,poly_3_surprise_relavent,"[""poly_0"",""poly_0""]",rotating_iia,,poly_0_train,,,,,,[],,
﻿[-116],purple,,poly_2,,[],[],175.5073,247697,174.0413,,[0.7813999999910664],[1],[],vase,,,,173.2593,,red,[1],[],,,,English,[0],,,,"[""Memory"",""Memory""]",,SESSION,,23,,,[-126],,,,60.24096386,,38,[],,,,[0],174.0416,,,,,[0],[],1,,2025-05-05_02h10.08.842,,,173.2587,[1],,,247697,[],,[-133],173.2589,,,38,1,,0,67e97d506e0dfa7ff0b407c5,,,[124],,,2024.2.4,,Win32,,test3103025,,resources/pots/red_purple.jpg,,,,[0],171.2603,[1.4650999999940382],270,,173.2586,,,,,,poly_2_surprise,,2025-05-05_02h10.49.333,,,poly_0_surprise_relavent,"[""poly_2"",""poly_2""]",rotating_iia,,poly_2_train,,,,,,[],,
﻿[],orange,,poly_0,,[],[],178.4911,247697,178.4903,,[0.9822000000029902],[1],[],vase,,,,177.5078,,green,[1],[],,,,English,[],,,,[],,SESSION,,39,,,[-114],,,,60.24096386,,39,[],,,,[0],178.4905,,,,,[0],[],1,,2025-05-05_02h10.08.842,,,177.5068,[],,,247697,[],,[],177.5071,,,39,1,,0,67e97d506e0dfa7ff0b407c5,,,[-289],,,2024.2.4,,Win32,,test3103025,,resources/pots/green_orange.jpg,,,,[],175.5099,[],0,,177.5068,,,,,,poly_0_surprise,,2025-05-05_02h10.49.333,,,poly_3_surprise_relavent,"[""poly_0"",""poly_0""]",rotating_iia,,poly_0_train,,,,,,[],,
﻿[],deepblue,,poly_3,,[],[],181.4909,247697,181.4901,,[0.9987999999970327],[1],[],vase,,,,180.4909,,yellow,[1],[],,,,English,[],,,,[],,SESSION,,32,,,[-108],,,,60.24096386,,40,[],,,,[0],181.4902,,,,,[0],[],1,,2025-05-05_02h10.08.842,,,180.4903,[],,,247697,[],,[],180.4905,,,40,1,,0,67e97d506e0dfa7ff0b407c5,,,[334],,,2024.2.4,,Win32,,test3103025,,resources/pots/yellow_deepblue.jpg,,,,[],178.4937,[],270,,180.4902,,,,,,poly_3_surprise,,2025-05-05_02h10.49.333,,,poly_1_surprise_relavent,"[""poly_3"",""poly_3""]",rotating_iia,,poly_3_train,,,,,,[],,
﻿[],orange,,poly_0,,[],[],184.5235,247697,184.5232,,[1.0327999999970245],[1],[],vase,,,,183.4903,,yellow,[1],[],,,,English,[],,,,[],,SESSION,,13,,,[-120],,,,60.24096386,,41,[],,,,[0],184.5233,,,,,[0],[],1,,2025-05-05_02h10.08.842,,,183.4898,[],,,247697,[],,[],183.4901,,,41,1,,0,67e97d506e0dfa7ff0b407c5,,,[-263],,,2024.2.4,,Win32,,test3103025,,resources/pots/yellow_orange.jpg,,,,[],181.4941,[],225,,183.4897,,,,,,poly_0_surprise,,2025-05-05_02h10.49.333,,,poly_1_surprise_relavent,"[""poly_0"",""poly_0""]",rotating_iia,,poly_0_train,,,,,,[],,
﻿,orange,,poly_3,[1],,,,247697,,,,,,flower,,1,"[""poly_0_surprise_relavent"",""poly_0_surprise_relavent""]",,[0],green,,,,[-94],[288],English,,[-109],186.5612,194.0293,,,SESSION,,,,[1],,,0,[1],60.24096386,"[""Memory"",""Memory""]",,,"[""poly_3_surprise"",""poly_3_surprise""]",[0],,,,[-116],,,[2.546799999997006],,,,[0],2025-05-05_02h10.08.842,,,,,0,,247697,,,,,0,184.5555,,1,195.3383,,67e97d506e0dfa7ff0b407c5,,,,0,,2024.2.4,,Win32,,test3103025,[0],resources/pots/green_orange.jpg,,[1.306200000002974],[-309],,,,225,[4.916899999991074],,191.4801,[-98],191.4795,,[0],poly_3_surprise,194.0297,2025-05-05_02h10.49.333,,186.5621,poly_0_surprise_relavent,,rotating_iia,[0],poly_3_train,,[1],,,[1],,,
﻿,purple,,poly_2,[1],,,,247697,,,,,,flower,,1,"[""poly_2_surprise_relavent"",""poly_2_surprise_relavent""]",,[0],lightblue,,,,[-105],[273],English,,[-105],197.338,201.9039,,,SESSION,,,,[1],,,1,[1],60.24096386,"[""Memory"",""Memory""]",,,"[""poly_3_surprise"",""poly_3_surprise""]",[0],,,,[-101],,,[1.5499000000059482],,,,[0],2025-05-05_02h10.08.842,,,,,1,,247697,,,,,0,195.3407,,1,202.9705,,67e97d506e0dfa7ff0b407c5,,,,1,,2024.2.4,,Win32,,test3103025,[0],resources/pots/lightblue_purple.jpg,,[1.0661000000089302],[79],,,,135,[3.0151000000089425],,200.3538,[-103],200.3535,,[0],poly_2_surprise,201.904,2025-05-05_02h10.49.333,,197.3382,poly_2_surprise_relavent,,rotating_iia,[0],poly_2_train,,[0],,,[1],,,
﻿,green,,poly_2,[1],,,,247697,,,,,,flower,,1,"[""poly_1_surprise_relavent"",""poly_1_surprise_relavent""]",,[0],lightblue,,,,[-107],[269],English,,[-113],204.9699,211.3029,,,SESSION,,,,[1],,,3,[1],60.24096386,"[""Memory"",""Memory""]",,,"[""poly_3_surprise"",""poly_3_surprise""]",[0],,,,[-72],,,[1.8152999999970234],,,,[0],2025-05-05_02h10.08.842,,,,,2,,247697,,,,,0,202.9734,,1,212.3525,,67e97d506e0dfa7ff0b407c5,,,,2,,2024.2.4,,Win32,,test3103025,[0],resources/pots/lightblue_green.jpg,,[1.0489000000059718],[-72],,,,90,[4.515799999997],,209.4871,[-113],209.4865,,[0],poly_2_surprise,211.3032,2025-05-05_02h10.49.333,,204.9704,poly_1_surprise_relavent,,rotating_iia,[0],poly_2_train,,[0],,,[1],,,
﻿,purple,,poly_2,[1],,,,247697,,,,,,flower,,1,"[""poly_2_surprise_relavent"",""poly_2_surprise_relavent""]",,[0],lightblue,,,,[-114],[128],English,,[-97],214.3533,218.4748,,,SESSION,,,,[1],,,2,[1],60.24096386,"[""Memory"",""Memory""]",,,"[""poly_2_surprise"",""poly_2_surprise""]",[0],,,,[-82],,,[1.3490999999940527],,,,[0],2025-05-05_02h10.08.842,,,,,3,,247697,,,,,0,212.3552,,1,220.1029,,67e97d506e0dfa7ff0b407c5,,,,3,,2024.2.4,,Win32,,test3103025,[0],resources/pots/lightblue_purple.jpg,,[1.6277000000029602],[121],,,,315,[2.770700000002961],,217.1252,[-115],217.1247,,[0],poly_2_surprise,218.4749,2025-05-05_02h10.49.333,,214.3536,poly_2_surprise_relavent,,rotating_iia,[0],poly_2_train,,[1],,,[1],,,
﻿,,220.1037,,,,,,247697,,,,,,,,,,,,,,,,,,English,,,,,,,SESSION,,,,,,,,,60.24096386,,,,,,,,,,,,,,,,,2025-05-05_02h10.08.842,,,,,,,247697,,,,,,,,,,,67e97d506e0dfa7ff0b407c5,,,,,,2024.2.4,,Win32,,test3103025,,,,,,,,,,,,,,,,,,,2025-05-05_02h10.49.333,,,,,rotating_iia,,,,,225.4182,,,,,
﻿,,,,,,,,279242,,,,,,,,,,,,,,,,,,English,,,,,,0.0005,SESSION,,,,,,19.1554,,,59.88023952,,,,,,,,,,,,,,,,,2025-05-05_08h12.18.321,,,,,,,279242,,,,,,,,,,,66350578901ab921d6a60af9,,,,,,2024.2.4,,Win32,,test3103025,,,,,,,,,,,,,,,,,,,2025-05-05_08h12.28.608,,,,,rotating_iia,,,,,,,,,,
﻿,deepblue,,poly_0,,,,,279242,,21.2219,,,,flower,19.2203,,,,,red,,,,,,English,,,,,,,SESSION,62.6002,,,,,,,,59.88023952,,,,,,0,,,,0,1,,,,,,2025-05-05_08h12.18.321,[0],,,,,,279242,,[41.36980000001192],,,,,,1,,,66350578901ab921d6a60af9,4,62.6028,,,0,2024.2.4,[0],Win32,[1],test3103025,,resources/pots/red_deepblue.jpg,,,,,,,90,,,,,,[0],,poly_0_surprise,,2025-05-05_08h12.28.608,"[""poly_3_train"",""poly_3_train""]",,poly_3_surprise_relavent,,rotating_iia,,poly_0_train,[273],,,[-89],,,21.2213,66.3491
﻿,orange,,poly_3,,,,,279242,,68.3491,,,,flower,66.3522,,,,,green,,,,,,English,,,,,,,SESSION,70.5487,,,,,,,,59.88023952,,,,,,1,,,,1,1,,,,,,2025-05-05_08h12.18.321,[0],,,,,,279242,,[2.199199999988082],,,,,,1,,,66350578901ab921d6a60af9,8,70.5497,,,0,2024.2.4,[1],Win32,[1],test3103025,,resources/pots/green_orange.jpg,,,,,,,315,,,,,,[0],,poly_3_surprise,,2025-05-05_08h12.28.608,"[""poly_3_train"",""poly_3_train""]",,poly_0_surprise_relavent,,rotating_iia,,poly_3_train,[292],,,[-61],,,68.3487,70.5503
﻿,deepblue,,poly_0,,,,,279242,,72.5484,,,,flower,70.5522,,,,,red,,,,,,English,,,,,,,SESSION,75.4313,,,,,,,,59.88023952,,,,,,2,,,,2,1,,,,,,2025-05-05_08h12.18.321,[0],,,,,,279242,,[2.882599999964242],,,,,,1,,,66350578901ab921d6a60af9,0,75.4317,,,0,2024.2.4,[0],Win32,[1],test3103025,,resources/pots/red_deepblue.jpg,,,,,,,135,,,,,,[0],,poly_0_surprise,,2025-05-05_08h12.28.608,"[""poly_2_train"",""poly_2_train""]",,poly_3_surprise_relavent,,rotating_iia,,poly_0_train,[90],,,[-94],,,72.5481,84.2966
﻿,orange,,poly_2,,,,,279242,,86.2967,,,,flower,84.2981,,,,,lightblue,,,,,,English,,,,,,,SESSION,89.0296,,,,,,,,59.88023952,,,,,,3,,,,3,1,,,,,,2025-05-05_08h12.18.321,[0],,,,,,279242,,[2.7328000000119204],,,,,,1,,,66350578901ab921d6a60af9,6,89.0303,,,0,2024.2.4,[1],Win32,[1],test3103025,,resources/pots/lightblue_orange.jpg,,,,,,,225,,,,,,[0],,poly_2_surprise,,2025-05-05_08h12.28.608,"[""poly_2_train"",""poly_2_train""]",,poly_0_surprise_relavent,,rotating_iia,,poly_2_train,[106],,,[-56],,,86.2964,89.0307
﻿,deepblue,,poly_1,,,,,279242,,91.0294,,,,flower,89.0329,,,,,yellow,,,,,,English,,,,,,,SESSION,92.3624,,,,,,,,59.88023952,,,,,,4,,,,4,1,,,,,,2025-05-05_08h12.18.321,[0],,,,,,279242,,[1.33270000004768],,,,,,1,,,66350578901ab921d6a60af9,9,92.363,,,0,2024.2.4,[1],Win32,[1],test3103025,,resources/pots/yellow_deepblue.jpg,,,,,,,225,,,,,,[0],,poly_1_surprise,,2025-05-05_08h12.28.608,"[""poly_1_train"",""poly_1_train""]",,poly_3_surprise_relavent,,rotating_iia,,poly_1_train,[-126],,,[-128],,,91.0293,92.3631
﻿,deepblue,,poly_3,,,,,279242,,94.3622,,,,flower,92.3649,,,,,green,,,,,,English,,,,,,,SESSION,96.5286,,,,,,,,59.88023952,,,,,,5,,,,5,1,,,,,,2025-05-05_08h12.18.321,[0],,,,,,279242,,[2.1660999999642314],,,,,,1,,,66350578901ab921d6a60af9,7,96.5291,,,0,2024.2.4,[1],Win32,[1],test3103025,,resources/pots/green_deepblue.jpg,,,,,,,180,,,,,,[0],,poly_3_surprise,,2025-05-05_08h12.28.608,"[""poly_3_train"",""poly_3_train""]",,poly_3_surprise_relavent,,rotating_iia,,poly_3_train,[288],,,[-106],,,94.362,96.5295
﻿,purple,,poly_3,,,,,279242,,98.5287,,,,flower,96.5312,,,,,green,,,,,,English,,,,,,,SESSION,100.9948,,,,,,,,59.88023952,,,,,,6,,,,6,1,,,,,,2025-05-05_08h12.18.321,[0],,,,,,279242,,[2.4656999999880895],,,,,,1,,,66350578901ab921d6a60af9,1,100.9961,,,0,2024.2.4,[1],Win32,[1],test3103025,,resources/pots/green_purple.jpg,,,,,,,180,,,,,,[0],,poly_3_surprise,,2025-05-05_08h12.28.608,"[""poly_3_train"",""poly_3_train""]",,poly_2_surprise_relavent,,rotating_iia,,poly_3_train,[255],,,[-102],,,98.5283,100.9968
﻿,orange,,poly_2,,,,,279242,,101.0007,,,,flower,100.9997,,,,,lightblue,,,,,,English,,,,,,,SESSION,101.0009,,,,,,,,59.88023952,,,,,,7,,,,7,1,,,,,,2025-05-05_08h12.18.321,[],,,,,,279242,,[],,,,,,1,,,66350578901ab921d6a60af9,3,101.0011,,,0,2024.2.4,[],Win32,[],test3103025,,resources/pots/lightblue_orange.jpg,,,,,,,135,,,,,,[],,poly_2_surprise,,2025-05-05_08h12.28.608,[],,poly_0_surprise_relavent,,rotating_iia,,poly_2_train,[],,,[],,,101.0004,101.0014
﻿,green,,poly_1,,,,,279242,,101.0035,,,,flower,101.003,,,,,yellow,,,,,,English,,,,,,,SESSION,101.0037,,,,,,,,59.88023952,,,,,,8,,,,8,1,,,,,,2025-05-05_08h12.18.321,[],,,,,,279242,,[],,,,,,1,,,66350578901ab921d6a60af9,2,101.0041,,,0,2024.2.4,[],Win32,[],test3103025,,resources/pots/yellow_green.jpg,,,,,,,315,,,,,,[],,poly_1_surprise,,2025-05-05_08h12.28.608,[],,poly_1_surprise_relavent,,rotating_iia,,poly_1_train,[],,,[],,,101.0031,101.0042
﻿,orange,,poly_3,,,,,279242,,101.0057,,,,flower,101.0055,,,,,green,,,,,,English,,,,,,,SESSION,101.0058,,,,,,,,59.88023952,,,,,,9,,,,9,1,,,,,,2025-05-05_08h12.18.321,[],,,,,,279242,,[],,,,,,1,,,66350578901ab921d6a60af9,5,101.0059,,,0,2024.2.4,[],Win32,[],test3103025,,resources/pots/green_orange.jpg,,,,,,,225,,,,,,[],,poly_3_surprise,,2025-05-05_08h12.28.608,[],,poly_0_surprise_relavent,,rotating_iia,,poly_3_train,[],,,[],,,101.0056,101.0059
﻿,,,,,,,,279242,,,,,,,,,,,,,,,space,,,English,,,,,,,SESSION,,,0.0002,,,,,,59.88023952,,,,,,,,,,,,,,,,,2025-05-05_08h12.18.321,,2.8721,,,,103.9279,279242,,,,,,,,,,,66350578901ab921d6a60af9,,,,,,2024.2.4,,Win32,,test3103025,,,101.0064,,,,,,,,,,,,,,,,2025-05-05_08h12.28.608,,,,,rotating_iia,,,,,,,,,,
﻿[-102],purple,,poly_3,,[],[],108.9444,279242,108.2943,,[2.3094000000357653],[1],[],flower,,,,105.9807,,green,[1],[],,,,English,[0],,,,"[""Other"",""Other""]",,SESSION,,26,,,[-102],,,,59.88023952,,0,[],,,,[0],108.2949,,,,,[0],[],1,,2025-05-05_08h12.18.321,,,105.9777,[1],,,279242,[],,[258],105.9798,,,0,1,,0,66350578901ab921d6a60af9,,,[258],,,2024.2.4,,Win32,,test3103025,,resources/pots/green_purple.jpg,,,,[0],103.9806,[0.6470999999642402],315,,105.9775,,,,,,poly_3_surprise,,2025-05-05_08h12.28.608,,,poly_2_surprise_relavent,"[""poly_3"",""poly_3""]",rotating_iia,,poly_3_train,,,,,,[],,
﻿[],orange,,poly_2,,[],[],112.0612,279242,112.0604,,[1.116500000000002],[1],[],flower,,,,110.9437,,lightblue,[1],[],,,,English,[],,,,[],,SESSION,,25,,,[-99],,,,59.88023952,,1,[],,,,[0],112.0605,,,,,[0],[],1,,2025-05-05_08h12.18.321,,,110.9434,[],,,279242,[],,[],110.9435,,,1,1,,0,66350578901ab921d6a60af9,,,[148],,,2024.2.4,,Win32,,test3103025,,resources/pots/lightblue_orange.jpg,,,,[],108.9469,[],315,,110.9434,,,,,,poly_2_surprise,,2025-05-05_08h12.28.608,,,poly_0_surprise_relavent,"[""poly_2"",""poly_2""]",rotating_iia,,poly_2_train,,,,,,[],,
﻿[],orange,,poly_2,,[],[],114.61,279242,114.6097,,[0.5497999999523131],[1],[],flower,,,,114.0598,,lightblue,[1],[],,,,English,[],,,,[],,SESSION,,3,,,[-105],,,,59.88023952,,2,[],,,,[0],114.6098,,,,,[0],[],1,,2025-05-05_08h12.18.321,,,114.0595,[],,,279242,[],,[],114.0597,,,2,1,,0,66350578901ab921d6a60af9,,,[136],,,2024.2.4,,Win32,,test3103025,,resources/pots/lightblue_orange.jpg,,,,[],112.0638,[],90,,114.0594,,,,,,poly_2_surprise,,2025-05-05_08h12.28.608,,,poly_0_surprise_relavent,"[""poly_2"",""poly_2""]",rotating_iia,,poly_2_train,,,,,,[],,
﻿[],green,,poly_2,,[],[],117.2763,279242,117.2761,,[0.6663000000119439],[1],[],flower,,,,116.6095,,lightblue,[1],[],,,,English,[],,,,[],,SESSION,,40,,,[-108],,,,59.88023952,,3,[],,,,[0],117.2761,,,,,[0],[],1,,2025-05-05_08h12.18.321,,,116.6092,[],,,279242,[],,[],116.6094,,,3,1,,0,66350578901ab921d6a60af9,,,[136],,,2024.2.4,,Win32,,test3103025,,resources/pots/lightblue_green.jpg,,,,[],114.6114,[],45,,116.6092,,,,,,poly_2_surprise,,2025-05-05_08h12.28.608,,,poly_1_surprise_relavent,"[""poly_2"",""poly_2""]",rotating_iia,,poly_2_train,,,,,,[],,
﻿[-103],green,,poly_0,,[],[],127.6915,279242,120.5095,,[1.233199999988102],[1],[],flower,,,,119.276,,red,[1],[],,,,English,[0],,,,"[""Memory"",""Memory""]",,SESSION,,17,,,[-83],,,,59.88023952,,4,[],,,,[0],120.5095,,,,,[0],[],1,,2025-05-05_08h12.18.321,,,119.2755,[1],,,279242,[],,[-91],119.2758,,,4,1,,0,66350578901ab921d6a60af9,,,[-312],,,2024.2.4,,Win32,,test3103025,,resources/pots/red_green.jpg,,,,[0],117.2779,[7.1815],135,,119.2755,,,,,,poly_0_surprise,,2025-05-05_08h12.28.608,,,poly_1_surprise_relavent,"[""poly_0"",""poly_0""]",rotating_iia,,poly_0_train,,,,,,[],,
﻿[],deepblue,,poly_3,,[],[],131.4082,279242,131.4079,,[1.7160000000000082],[1],[],flower,,,,129.6914,,green,[1],[],,,,English,[],,,,[],,SESSION,,36,,,[-100],,,,59.88023952,,5,[],,,,[0],131.408,,,,,[0],[],1,,2025-05-05_08h12.18.321,,,129.691,[],,,279242,[],,[],129.6912,,,5,1,,0,66350578901ab921d6a60af9,,,[272],,,2024.2.4,,Win32,,test3103025,,resources/pots/green_deepblue.jpg,,,,[],127.6923,[],225,,129.6909,,,,,,poly_3_surprise,,2025-05-05_08h12.28.608,,,poly_3_surprise_relavent,"[""poly_3"",""poly_3""]",rotating_iia,,poly_3_train,,,,,,[],,
﻿[],deepblue,,poly_3,,[],[],134.4077,279242,134.4074,,[0.999400000035763],[1],[],flower,,,,133.4078,,green,[1],[],,,,English,[],,,,[],,SESSION,,32,,,[-115],,,,59.88023952,,6,[],,,,[0],134.4076,,,,,[0],[],1,,2025-05-05_08h12.18.321,,,133.4075,[],,,279242,[],,[],133.4076,,,6,1,,0,66350578901ab921d6a60af9,,,[251],,,2024.2.4,,Win32,,test3103025,,resources/pots/green_deepblue.jpg,,,,[],131.411,[],135,,133.4074,,,,,,poly_3_surprise,,2025-05-05_08h12.28.608,,,poly_3_surprise_relavent,"[""poly_3"",""poly_3""]",rotating_iia,,poly_3_train,,,,,,[],,
﻿[-95],purple,,poly_0,,[],[],145.989,279242,138.1733,,[1.7658999999761704],[1],[],flower,,,,136.4072,,red,[1],[],,,,English,[0],,,,"[""Memory"",""Memory""]",,SESSION,,20,,,[-105],,,,59.88023952,,7,[],,,,[0],138.1735,,,,,[0],[],1,,2025-05-05_08h12.18.321,,,136.4069,[1],,,279242,[],,[-137],136.407,,,7,1,,0,66350578901ab921d6a60af9,,,[-290],,,2024.2.4,,Win32,,test3103025,,resources/pots/red_purple.jpg,,,,[0],134.4088,[7.815399999976165],315,,136.4068,,,,,,poly_0_surprise,,2025-05-05_08h12.28.608,,,poly_2_surprise_relavent,"[""poly_0"",""poly_0""]",rotating_iia,,poly_0_train,,,,,,[],,
﻿[],purple,,poly_2,,[],[],151.9553,279242,151.955,,[3.9656000000238407],[1],[],flower,,,,147.9892,,lightblue,[1],[],,,,English,[],,,,[],,SESSION,,31,,,[-87],,,,59.88023952,,8,[],,,,[0],151.9551,,,,,[0],[],1,,2025-05-05_08h12.18.321,,,147.9888,[],,,279242,[],,[],147.989,,,8,1,,0,66350578901ab921d6a60af9,,,[73],,,2024.2.4,,Win32,,test3103025,,resources/pots/lightblue_purple.jpg,,,,[],145.9904,[],225,,147.9888,,,,,,poly_2_surprise,,2025-05-05_08h12.28.608,,,poly_2_surprise_relavent,"[""poly_2"",""poly_2""]",rotating_iia,,poly_2_train,,,,,,[],,
﻿[],orange,,poly_3,,[],[],154.9048,279242,154.9046,,[0.9495000000000005],[1],[],flower,,,,153.9549,,green,[1],[],,,,English,[],,,,[],,SESSION,,16,,,[-69],,,,59.88023952,,9,[],,,,[0],154.9047,,,,,[0],[],1,,2025-05-05_08h12.18.321,,,153.9545,[],,,279242,[],,[],153.9546,,,9,1,,0,66350578901ab921d6a60af9,,,[284],,,2024.2.4,,Win32,,test3103025,,resources/pots/green_orange.jpg,,,,[],151.9564,[],270,,153.9545,,,,,,poly_3_surprise,,2025-05-05_08h12.28.608,,,poly_0_surprise_relavent,"[""poly_3"",""poly_3""]",rotating_iia,,poly_3_train,,,,,,[],,
﻿[],green,,poly_0,,[],[],157.9879,279242,157.9876,,[1.0828000000119005],[1],[],flower,,,,156.9045,,red,[1],[],,,,English,[],,,,[],,SESSION,,35,,,[-109],,,,59.88023952,,10,[],,,,[0],157.9877,,,,,[0],[],1,,2025-05-05_08h12.18.321,,,156.9042,[],,,279242,[],,[],156.9044,,,10,1,,0,66350578901ab921d6a60af9,,,[-284],,,2024.2.4,,Win32,,test3103025,,resources/pots/red_green.jpg,,,,[],154.9066,[],0,,156.9041,,,,,,poly_0_surprise,,2025-05-05_08h12.28.608,,,poly_1_surprise_relavent,"[""poly_0"",""poly_0""]",rotating_iia,,poly_0_train,,,,,,[],,
﻿[],green,,poly_0,,[],[],160.671,279242,160.6707,,[0.6800999999642272],[1],[],flower,,,,159.9904,,red,[1],[],,,,English,[],,,,[],,SESSION,,21,,,[-134],,,,59.88023952,,11,[],,,,[0],160.6708,,,,,[0],[],1,,2025-05-05_08h12.18.321,,,159.9903,[],,,279242,[],,[],159.9904,,,11,1,,0,66350578901ab921d6a60af9,,,[-306],,,2024.2.4,,Win32,,test3103025,,resources/pots/red_green.jpg,,,,[],157.9894,[],180,,159.9901,,,,,,poly_0_surprise,,2025-05-05_08h12.28.608,,,poly_1_surprise_relavent,"[""poly_0"",""poly_0""]",rotating_iia,,poly_0_train,,,,,,[],,
﻿[],orange,,poly_1,,[],[],164.7743,279242,164.7739,,[2.10290000003576],[1],[],flower,,,,162.6708,,yellow,[1],[],,,,English,[],,,,[],,SESSION,,34,,,[-125],,,,59.88023952,,12,[],,,,[0],164.774,,,,,[0],[],1,,2025-05-05_08h12.18.321,,,162.6704,[],,,279242,[],,[],162.6705,,,12,1,,0,66350578901ab921d6a60af9,,,[-95],,,2024.2.4,,Win32,,test3103025,,resources/pots/yellow_orange.jpg,,,,[],160.6736,[],315,,162.6703,,,,,,poly_1_surprise,,2025-05-05_08h12.28.608,,,poly_0_surprise_relavent,"[""poly_1"",""poly_1""]",rotating_iia,,poly_1_train,,,,,,[],,
﻿[-112],orange,,poly_3,,[],[],171.0692,279242,167.7864,,[1.0159999999999911],[1],[],flower,,,,166.7701,,green,[1],[],,,,English,[0],,,,"[""Memory"",""Memory""]",,SESSION,,14,,,[-100],,,,59.88023952,,13,[],,,,[0],167.7865,,,,,[0],[],1,,2025-05-05_08h12.18.321,,,166.7698,[1],,,279242,[],,[-137],166.7699,,,13,1,,0,66350578901ab921d6a60af9,,,[272],,,2024.2.4,,Win32,,test3103025,,resources/pots/green_orange.jpg,,,,[0],164.7766,[3.282499999999999],225,,166.7698,,,,,,poly_3_surprise,,2025-05-05_08h12.28.608,,,poly_0_surprise_relavent,"[""poly_3"",""poly_3""]",rotating_iia,,poly_3_train,,,,,,[],,
﻿[],purple,,poly_3,,[],[],174.2857,279242,174.2855,,[1.2160000000000082],[1],[],flower,,,,173.0692,,green,[1],[],,,,English,[],,,,[],,SESSION,,33,,,[-87],,,,59.88023952,,14,[],,,,[0],174.2856,,,,,[0],[],1,,2025-05-05_08h12.18.321,,,173.069,[],,,279242,[],,[],173.0691,,,14,1,,0,66350578901ab921d6a60af9,,,[293],,,2024.2.4,,Win32,,test3103025,,resources/pots/green_purple.jpg,,,,[],171.0703,[],135,,173.0689,,,,,,poly_3_surprise,,2025-05-05_08h12.28.608,,,poly_2_surprise_relavent,"[""poly_3"",""poly_3""]",rotating_iia,,poly_3_train,,,,,,[],,
﻿[],green,,poly_1,,[],[],177.502,279242,177.5018,,[1.2163000000118984],[1],[],flower,,,,176.2854,,yellow,[1],[],,,,English,[],,,,[],,SESSION,,2,,,[-92],,,,59.88023952,,15,[],,,,[0],177.5019,,,,,[0],[],1,,2025-05-05_08h12.18.321,,,176.2851,[],,,279242,[],,[],176.2852,,,15,1,,0,66350578901ab921d6a60af9,,,[-134],,,2024.2.4,,Win32,,test3103025,,resources/pots/yellow_green.jpg,,,,[],174.2868,[],180,,176.285,,,,,,poly_1_surprise,,2025-05-05_08h12.28.608,,,poly_1_surprise_relavent,"[""poly_1"",""poly_1""]",rotating_iia,,poly_1_train,,,,,,[],,
﻿[],green,,poly_1,,[],[],180.5016,279242,180.5014,,[0.9995000000000118],[1],[],flower,,,,179.5016,,yellow,[1],[],,,,English,[],,,,[],,SESSION,,41,,,[-112],,,,59.88023952,,16,[],,,,[0],180.5015,,,,,[0],[],1,,2025-05-05_08h12.18.321,,,179.5014,[],,,279242,[],,[],179.5015,,,16,1,,0,66350578901ab921d6a60af9,,,[-134],,,2024.2.4,,Win32,,test3103025,,resources/pots/yellow_green.jpg,,,,[],177.503,[],315,,179.5013,,,,,,poly_1_surprise,,2025-05-05_08h12.28.608,,,poly_1_surprise_relavent,"[""poly_1"",""poly_1""]",rotating_iia,,poly_1_train,,,,,,[],,
﻿[],purple,,poly_2,,[],[],184.6851,279242,184.6845,,[2.1826999999881025],[1],[],flower,,,,182.5015,,lightblue,[1],[],,,,English,[],,,,[],,SESSION,,30,,,[-117],,,,59.88023952,,17,[],,,,[0],184.6847,,,,,[0],[],1,,2025-05-05_08h12.18.321,,,182.5012,[],,,279242,[],,[],182.5013,,,17,1,,0,66350578901ab921d6a60af9,,,[123],,,2024.2.4,,Win32,,test3103025,,resources/pots/lightblue_purple.jpg,,,,[],180.5029,[],45,,182.5011,,,,,,poly_2_surprise,,2025-05-05_08h12.28.608,,,poly_2_surprise_relavent,"[""poly_2"",""poly_2""]",rotating_iia,,poly_2_train,,,,,,[],,
﻿[],deepblue,,poly_0,,[],[],187.7675,279242,187.7673,,[1.0828000000119005],[1],[],flower,,,,186.6843,,red,[1],[],,,,English,[],,,,[],,SESSION,,29,,,[-95],,,,59.88023952,,18,[],,,,[0],187.7674,,,,,[0],[],1,,2025-05-05_08h12.18.321,,,186.684,[],,,279242,[],,[],186.6841,,,18,1,,0,66350578901ab921d6a60af9,,,[-301],,,2024.2.4,,Win32,,test3103025,,resources/pots/red_deepblue.jpg,,,,[],184.6863,[],135,,186.6838,,,,,,poly_0_surprise,,2025-05-05_08h12.28.608,,,poly_3_surprise_relavent,"[""poly_0"",""poly_0""]",rotating_iia,,poly_0_train,,,,,,[],,
﻿[],green,,poly_1,,[],[],193.0835,279242,193.0832,,[3.3158999999761534],[1],[],flower,,,,189.7671,,yellow,[1],[],,,,English,[],,,,[],,SESSION,,18,,,[-95],,,,59.88023952,,19,[],,,,[0],193.0833,,,,,[0],[],1,,2025-05-05_08h12.18.321,,,189.7669,[],,,279242,[],,[],189.7669,,,19,1,,0,66350578901ab921d6a60af9,,,[-141],,,2024.2.4,,Win32,,test3103025,,resources/pots/yellow_green.jpg,,,,[],187.7687,[],45,,189.7668,,,,,,poly_1_surprise,,2025-05-05_08h12.28.608,,,poly_1_surprise_relavent,"[""poly_1"",""poly_1""]",rotating_iia,,poly_1_train,,,,,,[],,
﻿[],green,,poly_2,,[],[],196.1331,279242,196.1328,,[1.0493000000118968],[1],[],flower,,,,195.0834,,lightblue,[1],[],,,,English,[],,,,[],,SESSION,,10,,,[-116],,,,59.88023952,,20,[],,,,[0],196.133,,,,,[0],[],1,,2025-05-05_08h12.18.321,,,195.083,[],,,279242,[],,[],195.0832,,,20,1,,0,66350578901ab921d6a60af9,,,[110],,,2024.2.4,,Win32,,test3103025,,resources/pots/lightblue_green.jpg,,,,[],193.0855,[],0,,195.0829,,,,,,poly_2_surprise,,2025-05-05_08h12.28.608,,,poly_1_surprise_relavent,"[""poly_2"",""poly_2""]",rotating_iia,,poly_2_train,,,,,,[],,
﻿[-107],deepblue,,poly_1,,[1.7958000000119227],[0],209.8311,279242,207.3481,,[6.381699999988086],[1],"[""num_4"",""num_4""]",flower,,,,200.9661,,yellow,[1],[1],,,,English,[0],,,,"[""Guess"",""Guess""]",,SESSION,,27,,,[-108],,,,59.88023952,,21,[-65],,,,[0],207.3482,,,,,[0],[0],1,,2025-05-05_08h12.18.321,,,198.1335,[1],,,279242,[95],,[-295],200.9659,,,21,1,,0,66350578901ab921d6a60af9,,,[-57],,,2024.2.4,,Win32,,test3103025,,resources/pots/yellow_deepblue.jpg,,,,[0],196.1341,[2.4826999999880854],225,,198.1333,,,,,,poly_1_surprise,,2025-05-05_08h12.28.608,,,poly_3_surprise_relavent,"[""poly_1"",""poly_1""]",rotating_iia,,poly_1_train,,,,,,[1],,
﻿[],orange,,poly_2,,[],[],212.9643,279242,212.964,,[1.131800000011907],[1],[],flower,,,,211.832,,lightblue,[1],[],,,,English,[],,,,[],,SESSION,,38,,,[-100],,,,59.88023952,,22,[],,,,[0],212.9641,,,,,[0],[],1,,2025-05-05_08h12.18.321,,,211.8317,[],,,279242,[],,[],211.8317,,,22,1,,0,66350578901ab921d6a60af9,,,[92],,,2024.2.4,,Win32,,test3103025,,resources/pots/lightblue_orange.jpg,,,,[],209.8321,[],315,,211.8316,,,,,,poly_2_surprise,,2025-05-05_08h12.28.608,,,poly_0_surprise_relavent,"[""poly_2"",""poly_2""]",rotating_iia,,poly_2_train,,,,,,[],,
﻿[],green,,poly_1,,[],[],215.7306,279242,215.7303,,[0.7662000000476894],[1],[],flower,,,,214.964,,yellow,[1],[],,,,English,[],,,,[],,SESSION,,37,,,[-103],,,,59.88023952,,23,[],,,,[0],215.7304,,,,,[0],[],1,,2025-05-05_08h12.18.321,,,214.9637,[],,,279242,[],,[],214.9639,,,23,1,,0,66350578901ab921d6a60af9,,,[-92],,,2024.2.4,,Win32,,test3103025,,resources/pots/yellow_green.jpg,,,,[],212.9653,[],225,,214.9637,,,,,,poly_1_surprise,,2025-05-05_08h12.28.608,,,poly_1_surprise_relavent,"[""poly_1"",""poly_1""]",rotating_iia,,poly_1_train,,,,,,[],,
﻿[-102],deepblue,,poly_1,,[],[],221.0965,279242,218.3968,,[0.6661999999880663],[1],[],flower,,,,217.7302,,yellow,[1],[],,,,English,[0],,,,"[""Memory"",""Memory""]",,SESSION,,13,,,[-102],,,,59.88023952,,24,[],,,,[0],218.3968,,,,,[0],[],1,,2025-05-05_08h12.18.321,,,217.73,[1],,,279242,[],,[-92],217.7302,,,24,1,,0,66350578901ab921d6a60af9,,,[-92],,,2024.2.4,,Win32,,test3103025,,resources/pots/yellow_deepblue.jpg,,,,[0],215.7328,[2.6993999999761513],225,,217.7299,,,,,,poly_1_surprise,,2025-05-05_08h12.28.608,,,poly_3_surprise_relavent,"[""poly_1"",""poly_1""]",rotating_iia,,poly_1_train,,,,,,[],,
﻿[],green,,poly_2,,[],[],224.1129,279242,224.1127,,[1.0162999999523095],[1],[],flower,,,,223.0962,,lightblue,[1],[],,,,English,[],,,,[],,SESSION,,12,,,[-100],,,,59.88023952,,25,[],,,,[0],224.1127,,,,,[0],[],1,,2025-05-05_08h12.18.321,,,223.096,[],,,279242,[],,[],223.0961,,,25,1,,0,66350578901ab921d6a60af9,,,[53],,,2024.2.4,,Win32,,test3103025,,resources/pots/lightblue_green.jpg,,,,[],221.0982,[],180,,223.0959,,,,,,poly_2_surprise,,2025-05-05_08h12.28.608,,,poly_1_surprise_relavent,"[""poly_2"",""poly_2""]",rotating_iia,,poly_2_train,,,,,,[],,
﻿[],orange,,poly_1,,[],[],228.4291,279242,228.4288,,[2.315699999988084],[1],[],flower,,,,226.1128,,yellow,[1],[],,,,English,[],,,,[],,SESSION,,39,,,[-95],,,,59.88023952,,26,[],,,,[0],228.4289,,,,,[0],[],1,,2025-05-05_08h12.18.321,,,226.1125,[],,,279242,[],,[],226.1126,,,26,1,,0,66350578901ab921d6a60af9,,,[-92],,,2024.2.4,,Win32,,test3103025,,resources/pots/yellow_orange.jpg,,,,[],224.1144,[],45,,226.1124,,,,,,poly_1_surprise,,2025-05-05_08h12.28.608,,,poly_0_surprise_relavent,"[""poly_1"",""poly_1""]",rotating_iia,,poly_1_train,,,,,,[],,
﻿[-107],deepblue,,poly_3,,[],[],233.9281,279242,231.4487,,[1.0195999999642424],[1],[],flower,,,,230.4287,,green,[1],[],,,,English,[0],,,,"[""Memory"",""Memory""]",,SESSION,,23,,,[-89],,,,59.88023952,,27,[],,,,[0],231.4487,,,,,[0],[],1,,2025-05-05_08h12.18.321,,,230.4284,[1],,,279242,[],,[-68],230.4285,,,27,1,,0,66350578901ab921d6a60af9,,,[327],,,2024.2.4,,Win32,,test3103025,,resources/pots/green_deepblue.jpg,,,,[0],228.4307,[2.479199999988083],315,,230.4284,,,,,,poly_3_surprise,,2025-05-05_08h12.28.608,,,poly_3_surprise_relavent,"[""poly_3"",""poly_3""]",rotating_iia,,poly_3_train,,,,,,[],,
﻿[],orange,,poly_3,,[],[],237.5613,279242,237.5611,,[1.6326000000238423],[1],[],flower,,,,235.9284,,green,[1],[],,,,English,[],,,,[],,SESSION,,8,,,[-64],,,,59.88023952,,28,[],,,,[0],237.5612,,,,,[0],[],1,,2025-05-05_08h12.18.321,,,235.9281,[],,,279242,[],,[],235.9281,,,28,1,,0,66350578901ab921d6a60af9,,,[295],,,2024.2.4,,Win32,,test3103025,,resources/pots/green_orange.jpg,,,,[],233.9293,[],315,,235.928,,,,,,poly_3_surprise,,2025-05-05_08h12.28.608,,,poly_0_surprise_relavent,"[""poly_3"",""poly_3""]",rotating_iia,,poly_3_train,,,,,,[],,
﻿[],deepblue,,poly_1,,[],[],240.5606,279242,240.5604,,[0.9991999999880647],[1],[],flower,,,,239.5611,,yellow,[1],[],,,,English,[],,,,[],,SESSION,,9,,,[-137],,,,59.88023952,,29,[],,,,[0],240.5606,,,,,[0],[],1,,2025-05-05_08h12.18.321,,,239.5609,[],,,279242,[],,[],239.5611,,,29,1,,0,66350578901ab921d6a60af9,,,[-85],,,2024.2.4,,Win32,,test3103025,,resources/pots/yellow_deepblue.jpg,,,,[],237.563,[],0,,239.5608,,,,,,poly_1_surprise,,2025-05-05_08h12.28.608,,,poly_3_surprise_relavent,"[""poly_1"",""poly_1""]",rotating_iia,,poly_1_train,,,,,,[],,
﻿[],deepblue,,poly_0,,[],[],243.6444,279242,243.644,,[1.083500000000015],[1],[],flower,,,,242.5605,,red,[1],[],,,,English,[],,,,[],,SESSION,,4,,,[-122],,,,59.88023952,,30,[],,,,[0],243.6442,,,,,[0],[],1,,2025-05-05_08h12.18.321,,,242.5603,[],,,279242,[],,[],242.5604,,,30,1,,0,66350578901ab921d6a60af9,,,[-283],,,2024.2.4,,Win32,,test3103025,,resources/pots/red_deepblue.jpg,,,,[],240.5622,[],0,,242.5602,,,,,,poly_0_surprise,,2025-05-05_08h12.28.608,,,poly_3_surprise_relavent,"[""poly_0"",""poly_0""]",rotating_iia,,poly_0_train,,,,,,[],,
﻿[],deepblue,,poly_0,,[],[],247.7932,279242,247.7929,,[2.145899999976166],[1],[],flower,,,,245.6469,,red,[1],[],,,,English,[],,,,[],,SESSION,,0,,,[-115],,,,59.88023952,,31,[],,,,[0],247.7931,,,,,[0],[],1,,2025-05-05_08h12.18.321,,,245.6462,[],,,279242,[],,[],245.6467,,,31,1,,0,66350578901ab921d6a60af9,,,[-274],,,2024.2.4,,Win32,,test3103025,,resources/pots/red_deepblue.jpg,,,,[],243.6469,[],180,,245.6459,,,,,,poly_0_surprise,,2025-05-05_08h12.28.608,,,poly_3_surprise_relavent,"[""poly_0"",""poly_0""]",rotating_iia,,poly_0_train,,,,,,[],,
﻿[],purple,,poly_3,,[],[],250.8933,279242,250.8931,,[1.1000000000000227],[1],[],flower,,,,249.793,,green,[1],[],,,,English,[],,,,[],,SESSION,,1,,,[-89],,,,59.88023952,,32,[],,,,[0],250.8933,,,,,[0],[],1,,2025-05-05_08h12.18.321,,,249.7927,[],,,279242,[],,[],249.7928,,,32,1,,0,66350578901ab921d6a60af9,,,[313],,,2024.2.4,,Win32,,test3103025,,resources/pots/green_purple.jpg,,,,[],247.7944,[],45,,249.7927,,,,,,poly_3_surprise,,2025-05-05_08h12.28.608,,,poly_2_surprise_relavent,"[""poly_3"",""poly_3""]",rotating_iia,,poly_3_train,,,,,,[],,
﻿[],orange,,poly_2,,[],[],253.7092,279242,253.7089,,[0.8162000000477292],[1],[],flower,,,,252.8925,,lightblue,[1],[],,,,English,[],,,,[],,SESSION,,6,,,[-120],,,,59.88023952,,33,[],,,,[0],253.7091,,,,,[0],[],1,,2025-05-05_08h12.18.321,,,252.8922,[],,,279242,[],,[],252.8924,,,33,1,,0,66350578901ab921d6a60af9,,,[79],,,2024.2.4,,Win32,,test3103025,,resources/pots/lightblue_orange.jpg,,,,[],250.8943,[],0,,252.8922,,,,,,poly_2_surprise,,2025-05-05_08h12.28.608,,,poly_0_surprise_relavent,"[""poly_2"",""poly_2""]",rotating_iia,,poly_2_train,,,,,,[],,
﻿[-108],green,,poly_2,,[],[],257.9099,279242,256.5585,,[0.8496000000238269],[1],[],flower,,,,255.7088,,lightblue,[1],[],,,,English,[0],,,,"[""Memory"",""Memory""]",,SESSION,,11,,,[-107],,,,59.88023952,,34,[],,,,[0],256.5586,,,,,[0],[],1,,2025-05-05_08h12.18.321,,,255.7085,[1],,,279242,[],,[-106],255.7086,,,34,1,,0,66350578901ab921d6a60af9,,,[118],,,2024.2.4,,Win32,,test3103025,,resources/pots/lightblue_green.jpg,,,,[0],253.7104,[1.350999999999999],270,,255.7084,,,,,,poly_2_surprise,,2025-05-05_08h12.28.608,,,poly_1_surprise_relavent,"[""poly_2"",""poly_2""]",rotating_iia,,poly_2_train,,,,,,[],,
﻿[],orange,,poly_1,,[],[],260.8416,279242,260.8414,,[0.9326000000238537],[1],[],flower,,,,259.9086,,yellow,[1],[],,,,English,[],,,,[],,SESSION,,19,,,[-102],,,,59.88023952,,35,[],,,,[0],260.8414,,,,,[0],[],1,,2025-05-05_08h12.18.321,,,259.9083,[],,,279242,[],,[],259.9085,,,35,1,,0,66350578901ab921d6a60af9,,,[-92],,,2024.2.4,,Win32,,test3103025,,resources/pots/yellow_orange.jpg,,,,[],257.9121,[],0,,259.9083,,,,,,poly_1_surprise,,2025-05-05_08h12.28.608,,,poly_0_surprise_relavent,"[""poly_1"",""poly_1""]",rotating_iia,,poly_1_train,,,,,,[],,
﻿[],orange,,poly_3,,[],[],263.9412,279242,263.941,,[1.0993000000119082],[1],[],flower,,,,262.8416,,green,[1],[],,,,English,[],,,,[],,SESSION,,5,,,[-94],,,,59.88023952,,36,[],,,,[0],263.941,,,,,[0],[],1,,2025-05-05_08h12.18.321,,,262.8413,[],,,279242,[],,[],262.8414,,,36,1,,0,66350578901ab921d6a60af9,,,[336],,,2024.2.4,,Win32,,test3103025,,resources/pots/green_orange.jpg,,,,[],260.8427,[],0,,262.8412,,,,,,poly_3_surprise,,2025-05-05_08h12.28.608,,,poly_0_surprise_relavent,"[""poly_3"",""poly_3""]",rotating_iia,,poly_3_train,,,,,,[],,
﻿[],green,,poly_0,,[],[],267.6908,279242,267.6906,,[1.7491999999880932],[1],[],flower,,,,265.9412,,red,[1],[],,,,English,[],,,,[],,SESSION,,24,,,[-84],,,,59.88023952,,37,[],,,,[0],267.6907,,,,,[0],[],1,,2025-05-05_08h12.18.321,,,265.941,[],,,279242,[],,[],265.9411,,,37,1,,0,66350578901ab921d6a60af9,,,[-297],,,2024.2.4,,Win32,,test3103025,,resources/pots/red_green.jpg,,,,[],263.9423,[],225,,265.941,,,,,,poly_0_surprise,,2025-05-05_08h12.28.608,,,poly_1_surprise_relavent,"[""poly_0"",""poly_0""]",rotating_iia,,poly_0_train,,,,,,[],,
﻿[-100],purple,,poly_0,,[],[],275.8401,279242,270.5901,,[0.8996000000238382],[1],[],flower,,,,269.6904,,red,[1],[],,,,English,[0],,,,"[""Memory"",""Memory""]",,SESSION,,28,,,[-89],,,,59.88023952,,38,[],,,,[0],270.5902,,,,,[0],[],1,,2025-05-05_08h12.18.321,,,269.6901,[1],,,279242,[],,[-73],269.6902,,,38,1,,0,66350578901ab921d6a60af9,,,[-293],,,2024.2.4,,Win32,,test3103025,,resources/pots/red_purple.jpg,,,,[0],267.6922,[5.249599999964232],45,,269.6901,,,,,,poly_0_surprise,,2025-05-05_08h12.28.608,,,poly_2_surprise_relavent,"[""poly_0"",""poly_0""]",rotating_iia,,poly_0_train,,,,,,[],,
﻿[],deepblue,,poly_3,,[],[],279.2395,279242,279.2392,,[1.3993999999761968],[1],[],flower,,,,277.8396,,green,[1],[],,,,English,[],,,,[],,SESSION,,7,,,[-99],,,,59.88023952,,39,[],,,,[0],279.2393,,,,,[0],[],1,,2025-05-05_08h12.18.321,,,277.8393,[],,,279242,[],,[],277.8395,,,39,1,,0,66350578901ab921d6a60af9,,,[276],,,2024.2.4,,Win32,,test3103025,,resources/pots/green_deepblue.jpg,,,,[],275.8414,[],135,,277.8392,,,,,,poly_3_surprise,,2025-05-05_08h12.28.608,,,poly_3_surprise_relavent,"[""poly_3"",""poly_3""]",rotating_iia,,poly_3_train,,,,,,[],,
﻿[],deepblue,,poly_1,,[],[],285.0555,279242,285.0551,,[3.8159000000357537],[1],[],flower,,,,281.239,,yellow,[0],[],,,,English,[],,,,[],,SESSION,,22,,,[-112],,,,59.88023952,,40,[],,,,[0],285.0552,,,,,[0],[],1,,2025-05-05_08h12.18.321,,,281.2387,[],,,279242,[],,[],281.2388,,,40,1,,0,66350578901ab921d6a60af9,,,[81],,,2024.2.4,,Win32,,test3103025,,resources/pots/yellow_deepblue.jpg,,,,[],279.2413,[],270,,281.2387,,,,,,poly_1_surprise,,2025-05-05_08h12.28.608,,,poly_3_surprise_relavent,"[""poly_2"",""poly_2""]",rotating_iia,,poly_1_train,,,,,,[],,
﻿[],purple,,poly_2,,[],[],287.9718,279242,287.9715,,[0.9162000000476951],[1],[],flower,,,,287.055,,lightblue,[1],[],,,,English,[],,,,[],,SESSION,,15,,,[-112],,,,59.88023952,,41,[],,,,[0],287.9716,,,,,[0],[],1,,2025-05-05_08h12.18.321,,,287.0546,[],,,279242,[],,[],287.0547,,,41,1,,0,66350578901ab921d6a60af9,,,[73],,,2024.2.4,,Win32,,test3103025,,resources/pots/lightblue_purple.jpg,,,,[],285.0574,[],90,,287.0546,,,,,,poly_2_surprise,,2025-05-05_08h12.28.608,,,poly_2_surprise_relavent,"[""poly_2"",""poly_2""]",rotating_iia,,poly_2_train,,,,,,[],,
﻿,purple,,poly_2,[1],,,,279242,,,,,,vase,,1,"[""poly_0_surprise_relavent"",""poly_0_surprise_relavent""]",,[0],red,,,,[-88],[-262],English,,[-100],290.0047,292.7878,,,SESSION,,,,[1],,,3,[1],59.88023952,"[""Memory"",""Memory""]",,,"[""poly_0_surprise"",""poly_0_surprise""]",[0],,,,[-105],,,[1.4948000000118782],,,,[0],2025-05-05_08h12.18.321,,,,,0,,279242,,,,,0,288.0128,,1,294.3042,,66350578901ab921d6a60af9,,,,0,,2024.2.4,,Win32,,test3103025,[0],resources/pots/red_purple.jpg,,[1.5139000000357328],[-334],,,,45,[1.2825000000000273],,291.2896,[-85],291.288,,[0],poly_2_surprise,292.7881,2025-05-05_08h12.28.608,,290.0052,poly_0_surprise_relavent,,rotating_iia,[0],poly_2_train,,[0],,,[1],,,
﻿,green,,poly_1,[1],,,,279242,,,,,,vase,,1,"[""poly_0_surprise_relavent"",""poly_0_surprise_relavent""]",,[0],yellow,,,,[-97],[-137],English,,[-103],296.3035,305.9025,,,SESSION,,,,[1],,,0,[0],59.88023952,"[""Memory"",""Memory""]",,,"[""poly_1_surprise"",""poly_1_surprise""]",[0],,,,[-128],,,[4.215399999976114],,,,[0],2025-05-05_08h12.18.321,,,,,1,,279242,,,,,0,294.306,,1,310.1353,,66350578901ab921d6a60af9,,,,1,,2024.2.4,,Win32,,test3103025,[0],resources/pots/yellow_green.jpg,,[4.232299999952318],[-310],,,,180,[5.382899999976189],,301.6869,[-86],301.6867,,[0],poly_1_surprise,305.9027,2025-05-05_08h12.28.608,,296.3038,poly_1_surprise_relavent,,rotating_iia,[0],poly_1_train,,[1],,,[1],,,
﻿,deepblue,,poly_3,[1],,,,279242,,,,,,vase,,1,"[""poly_1_surprise_relavent"",""poly_1_surprise_relavent""]",,[0],yellow,,,,[-89],[284],English,,[-95],312.1351,316.8679,,,SESSION,,,,[1],,,2,[1],59.88023952,"[""Memory"",""Memory""]",,,"[""poly_3_surprise"",""poly_3_surprise""]",[0],,,,[-60],,,[2.5491000000238273],,,,[0],2025-05-05_08h12.18.321,,,,,2,,279242,,,,,0,310.1371,,1,318.0009,,66350578901ab921d6a60af9,,,,2,,2024.2.4,,Win32,,test3103025,[0],resources/pots/yellow_deepblue.jpg,,[1.1326000000238423],[-58],,,,90,[2.1828999999761436],,314.3186,[-95],314.3184,,[0],poly_3_surprise,316.8681,2025-05-05_08h12.28.608,,312.1353,poly_1_surprise_relavent,,rotating_iia,[0],poly_3_train,,[1],,,[1],,,
﻿,orange,,poly_0,[1],,,,279242,,,,,,vase,,1,"[""poly_1_surprise_relavent"",""poly_1_surprise_relavent""]",,[0],yellow,,,,[-100],[-276],English,,[-109],320.0005,325.8834,,,SESSION,,,,[1],,,1,[1],59.88023952,"[""Memory"",""Memory""]",,,"[""poly_0_surprise"",""poly_0_surprise""]",[0],,,,[-103],,,[2.0946000000238314],,,,[0],2025-05-05_08h12.18.321,,,,,3,,279242,,,,,0,318.0024,,1,329.4663,,66350578901ab921d6a60af9,,,,3,,2024.2.4,,Win32,,test3103025,[0],resources/pots/yellow_orange.jpg,,[3.582499999999982],[-109],,,,135,[3.7865999999642668],,323.7886,[-130],323.7875,,[0],poly_0_surprise,325.8834,2025-05-05_08h12.28.608,,320.0008,poly_1_surprise_relavent,,rotating_iia,[0],poly_0_train,,[1],,,[1],,,
﻿,,329.4667,,,,,,279242,,,,,,,,,,,,,,,,,,English,,,,,,,SESSION,,,,,,,,,59.88023952,,,,,,,,,,,,,,,,,2025-05-05_08h12.18.321,,,,,,,279242,,,,,,,,,,,66350578901ab921d6a60af9,,,,,,2024.2.4,,Win32,,test3103025,,,,,,,,,,,,,,,,,,,2025-05-05_08h12.28.608,,,,,rotating_iia,,,,,334.2492,,,,,
﻿,,,,,,,,208401,,,,,,,,,,,,,,,,,,English,,,,,,1.00E-04,SESSION,,,,,,7.0741,,,74.62686567,,,,,,,,,,,,,,,,,2025-05-05_08h22.10.017,,,,,,,208401,,,,,,,,,,,64011ddd299336698fa0c488,,,,,,2024.2.4,,Win32,,test3103025,,,,,,,,,,,,,,,,,,,2025-05-05_08h22.19.074,,,,,rotating_iia,,,,,,,,,,
﻿,purple,,poly_2,,,,,208401,,9.0888,,,,vase,7.0883,,,,,lightblue,,,,,,English,,,,,,,SESSION,10.1154,,,,,,,,74.62686567,,,,,,0,,,,0,1,,,,,,2025-05-05_08h22.10.017,[0],,,,,,208401,,[1.0251999998092636],,,,,,1,,,64011ddd299336698fa0c488,1,10.1159,,,0,2024.2.4,[1],Win32,[1],test3103025,,resources/pots/lightblue_purple.jpg,,,,,,,270,,,,,,[0],,poly_2_surprise,,2025-05-05_08h22.19.074,"[""poly_2_train"",""poly_2_train""]",,poly_2_surprise_relavent,,rotating_iia,,poly_2_train,[98],,,[-78],,,9.0885,10.1161
﻿,green,,poly_1,,,,,208401,,12.1164,,,,vase,10.1165,,,,,yellow,,,,,,English,,,,,,,SESSION,12.8763,,,,,,,,74.62686567,,,,,,1,,,,1,1,,,,,,2025-05-05_08h22.10.017,[0],,,,,,208401,,[0.7596999998092642],,,,,,1,,,64011ddd299336698fa0c488,4,12.8764,,,0,2024.2.4,[1],Win32,[1],test3103025,,resources/pots/yellow_green.jpg,,,,,,,135,,,,,,[0],,poly_1_surprise,,2025-05-05_08h22.19.074,"[""poly_1_train"",""poly_1_train""]",,poly_1_surprise_relavent,,rotating_iia,,poly_1_train,[-84],,,[-103],,,12.1163,12.8766
﻿,green,,poly_1,,,,,208401,,14.8768,,,,vase,12.8772,,,,,red,,,,,,English,,,,,,,SESSION,15.4104,,,,,,,,74.62686567,,,,,,2,,,,2,1,,,,,,2025-05-05_08h22.10.017,[0],,,,,,208401,,[0.5335000000000001],,,,,,1,,,64011ddd299336698fa0c488,7,15.4105,,,0,2024.2.4,[1],Win32,[1],test3103025,,resources/pots/red_green.jpg,,,,,,,225,,,,,,[0],,poly_1_surprise,,2025-05-05_08h22.19.074,"[""poly_1_train"",""poly_1_train""]",,poly_0_surprise_relavent,,rotating_iia,,poly_1_train,[-124],,,[-109],,,14.8767,15.4106
﻿,purple,,poly_2,,,,,208401,,17.4112,,,,vase,15.4109,,,,,red,,,,,,English,,,,,,,SESSION,18.0114,,,,,,,,74.62686567,,,,,,3,,,,3,1,,,,,,2025-05-05_08h22.10.017,[0],,,,,,208401,,[0.6000999999046321],,,,,,1,,,64011ddd299336698fa0c488,8,18.0115,,,0,2024.2.4,[1],Win32,[1],test3103025,,resources/pots/red_purple.jpg,,,,,,,0,,,,,,[0],,poly_2_surprise,,2025-05-05_08h22.19.074,"[""poly_2_train"",""poly_2_train""]",,poly_0_surprise_relavent,,rotating_iia,,poly_2_train,[72],,,[-120],,,17.411,18.0115
﻿,purple,,poly_2,,,,,208401,,18.0119,,,,vase,18.0118,,,,,green,,,,,,English,,,,,,,SESSION,18.012,,,,,,,,74.62686567,,,,,,4,,,,4,1,,,,,,2025-05-05_08h22.10.017,[],,,,,,208401,,[],,,,,,1,,,64011ddd299336698fa0c488,2,18.012,,,0,2024.2.4,[],Win32,[],test3103025,,resources/pots/green_purple.jpg,,,,,,,45,,,,,,[],,poly_2_surprise,,2025-05-05_08h22.19.074,[],,poly_3_surprise_relavent,,rotating_iia,,poly_2_train,[],,,[],,,18.0118,18.012
﻿,purple,,poly_2,,,,,208401,,18.0122,,,,vase,18.0121,,,,,green,,,,,,English,,,,,,,SESSION,18.0122,,,,,,,,74.62686567,,,,,,5,,,,5,1,,,,,,2025-05-05_08h22.10.017,[],,,,,,208401,,[],,,,,,1,,,64011ddd299336698fa0c488,0,18.0122,,,0,2024.2.4,[],Win32,[],test3103025,,resources/pots/green_purple.jpg,,,,,,,0,,,,,,[],,poly_2_surprise,,2025-05-05_08h22.19.074,[],,poly_3_surprise_relavent,,rotating_iia,,poly_2_train,[],,,[],,,18.0121,18.0122
﻿,purple,,poly_2,,,,,208401,,18.0124,,,,vase,18.0123,,,,,green,,,,,,English,,,,,,,SESSION,18.0124,,,,,,,,74.62686567,,,,,,6,,,,6,1,,,,,,2025-05-05_08h22.10.017,[],,,,,,208401,,[],,,,,,1,,,64011ddd299336698fa0c488,3,18.0124,,,0,2024.2.4,[],Win32,[],test3103025,,resources/pots/green_purple.jpg,,,,,,,135,,,,,,[],,poly_2_surprise,,2025-05-05_08h22.19.074,[],,poly_3_surprise_relavent,,rotating_iia,,poly_2_train,[],,,[],,,18.0123,18.0125
﻿,green,,poly_1,,,,,208401,,18.0126,,,,vase,18.0126,,,,,red,,,,,,English,,,,,,,SESSION,18.0126,,,,,,,,74.62686567,,,,,,7,,,,7,1,,,,,,2025-05-05_08h22.10.017,[],,,,,,208401,,[],,,,,,1,,,64011ddd299336698fa0c488,5,18.0127,,,0,2024.2.4,[],Win32,[],test3103025,,resources/pots/red_green.jpg,,,,,,,270,,,,,,[],,poly_1_surprise,,2025-05-05_08h22.19.074,[],,poly_0_surprise_relavent,,rotating_iia,,poly_1_train,[],,,[],,,18.0126,18.0127
﻿,purple,,poly_2,,,,,208401,,18.0129,,,,vase,18.0128,,,,,lightblue,,,,,,English,,,,,,,SESSION,18.0129,,,,,,,,74.62686567,,,,,,8,,,,8,1,,,,,,2025-05-05_08h22.10.017,[],,,,,,208401,,[],,,,,,1,,,64011ddd299336698fa0c488,6,18.0129,,,0,2024.2.4,[],Win32,[],test3103025,,resources/pots/lightblue_purple.jpg,,,,,,,45,,,,,,[],,poly_2_surprise,,2025-05-05_08h22.19.074,[],,poly_2_surprise_relavent,,rotating_iia,,poly_2_train,[],,,[],,,18.0128,18.0129
﻿,deepblue,,poly_3,,,,,208401,,18.0131,,,,vase,18.0131,,,,,red,,,,,,English,,,,,,,SESSION,18.0131,,,,,,,,74.62686567,,,,,,9,,,,9,1,,,,,,2025-05-05_08h22.10.017,[],,,,,,208401,,[],,,,,,1,,,64011ddd299336698fa0c488,9,18.0131,,,0,2024.2.4,[],Win32,[],test3103025,,resources/pots/red_deepblue.jpg,,,,,,,225,,,,,,[],,poly_3_surprise,,2025-05-05_08h22.19.074,[],,poly_0_surprise_relavent,,rotating_iia,,poly_3_train,[],,,[],,,18.0131,18.0131
﻿,,,,,,,,208401,,,,,,,,,,,,,,,space,,,English,,,,,,,SESSION,,,,,,,,,74.62686567,,,,,,,,,,,,,,,,,2025-05-05_08h22.10.017,,3.4193,,,,21.4525,208401,,,,,,,,,,,64011ddd299336698fa0c488,,,,,,2024.2.4,,Win32,,test3103025,,,18.0132,,,,,,,,,,,,,,,,2025-05-05_08h22.19.074,,,,,rotating_iia,,,,,,,,,,
﻿[-104],green,,poly_1,,[],[],28.8821,208401,24.0537,,[0.5989000000953695],[1],[],vase,,,,23.4539,,lightblue,[1],[],,,,English,[0],,,,"[""Memory"",""Memory""]",,SESSION,,33,,,[-73],,,,74.62686567,,0,[],,,,[0],24.0539,,,,,[0],[],1,,2025-05-05_08h22.10.017,,,23.4534,[1],,,208401,[],,[-81],23.4539,,,0,1,,0,64011ddd299336698fa0c488,,,[-101],,,2024.2.4,,Win32,,test3103025,,resources/pots/lightblue_green.jpg,,,,[0],21.4592,[4.827800000190734],45,,23.4533,,,,,,poly_1_surprise,,2025-05-05_08h22.19.074,,,poly_2_surprise_relavent,"[""poly_1"",""poly_1""]",rotating_iia,,poly_1_train,,,,,,[],,
﻿[],purple,,poly_2,,[],[],31.8697,208401,31.8695,,[0.9862000002861038],[1],[],vase,,,,30.8832,,lightblue,[1],[],,,,English,[],,,,[],,SESSION,,34,,,[-116],,,,74.62686567,,1,[],,,,[0],31.8696,,,,,[0],[],1,,2025-05-05_08h22.10.017,,,30.8829,[],,,208401,[],,[],30.8831,,,1,1,,0,64011ddd299336698fa0c488,,,[108],,,2024.2.4,,Win32,,test3103025,,resources/pots/lightblue_purple.jpg,,,,[],28.8826,[],315,,30.8829,,,,,,poly_2_surprise,,2025-05-05_08h22.19.074,,,poly_2_surprise_relavent,"[""poly_2"",""poly_2""]",rotating_iia,,poly_2_train,,,,,,[],,
﻿[],green,,poly_1,,[],[],34.8176,208401,34.8175,,[0.9468000001907342],[1],[],vase,,,,33.8705,,yellow,[1],[],,,,English,[],,,,[],,SESSION,,4,,,[-109],,,,74.62686567,,2,[],,,,[0],34.8176,,,,,[0],[],1,,2025-05-05_08h22.10.017,,,33.8703,[],,,208401,[],,[],33.8704,,,2,1,,0,64011ddd299336698fa0c488,,,[-75],,,2024.2.4,,Win32,,test3103025,,resources/pots/yellow_green.jpg,,,,[],31.87,[],180,,33.8702,,,,,,poly_1_surprise,,2025-05-05_08h22.19.074,,,poly_1_surprise_relavent,"[""poly_1"",""poly_1""]",rotating_iia,,poly_1_train,,,,,,[],,
﻿[],purple,,poly_2,,[],[],37.4052,208401,37.4051,,[0.5867000002861005],[1],[],vase,,,,36.8183,,green,[1],[],,,,English,[],,,,[],,SESSION,,3,,,[-135],,,,74.62686567,,3,[],,,,[0],37.4052,,,,,[0],[],1,,2025-05-05_08h22.10.017,,,36.8181,[],,,208401,[],,[],36.8182,,,3,1,,0,64011ddd299336698fa0c488,,,[60],,,2024.2.4,,Win32,,test3103025,,resources/pots/green_purple.jpg,,,,[],34.8179,[],315,,36.8181,,,,,,poly_2_surprise,,2025-05-05_08h22.19.074,,,poly_3_surprise_relavent,"[""poly_2"",""poly_2""]",rotating_iia,,poly_2_train,,,,,,[],,
﻿[-104],purple,,poly_2,,[],[],41.2729,208401,40.0459,,[0.6398999996185282],[1],[],vase,,,,39.4059,,red,[1],[],,,,English,[0],,,,"[""Memory"",""Memory""]",,SESSION,,38,,,[-130],,,,74.62686567,,4,[],,,,[0],40.0459,,,,,[0],[],1,,2025-05-05_08h22.10.017,,,39.4057,[1],,,208401,[],,[-91],39.4057,,,4,1,,0,64011ddd299336698fa0c488,,,[74],,,2024.2.4,,Win32,,test3103025,,resources/pots/red_purple.jpg,,,,[0],37.4054,[1.2267999997138972],0,,39.4056,,,,,,poly_2_surprise,,2025-05-05_08h22.19.074,,,poly_0_surprise_relavent,"[""poly_2"",""poly_2""]",rotating_iia,,poly_2_train,,,,,,[],,
﻿[],purple,,poly_2,,[],[],43.9142,208401,43.914,,[0.6400000000000006],[1],[],vase,,,,43.2738,,red,[1],[],,,,English,[],,,,[],,SESSION,,8,,,[-100],,,,74.62686567,,5,[],,,,[0],43.9141,,,,,[0],[],1,,2025-05-05_08h22.10.017,,,43.2737,[],,,208401,[],,[],43.2738,,,5,1,,0,64011ddd299336698fa0c488,,,[67],,,2024.2.4,,Win32,,test3103025,,resources/pots/red_purple.jpg,,,,[],41.2732,[],0,,43.2737,,,,,,poly_2_surprise,,2025-05-05_08h22.19.074,,,poly_0_surprise_relavent,"[""poly_2"",""poly_2""]",rotating_iia,,poly_2_train,,,,,,[],,
﻿[],purple,,poly_2,,[],[],46.3815,208401,46.3815,,[0.46649999999999636],[1],[],vase,,,,45.9149,,red,[1],[],,,,English,[],,,,[],,SESSION,,17,,,[-131],,,,74.62686567,,6,[],,,,[0],46.3815,,,,,[0],[],1,,2025-05-05_08h22.10.017,,,45.9147,[],,,208401,[],,[],45.9147,,,6,1,,0,64011ddd299336698fa0c488,,,[92],,,2024.2.4,,Win32,,test3103025,,resources/pots/red_purple.jpg,,,,[],43.9145,[],90,,45.9147,,,,,,poly_2_surprise,,2025-05-05_08h22.19.074,,,poly_0_surprise_relavent,"[""poly_2"",""poly_2""]",rotating_iia,,poly_2_train,,,,,,[],,
﻿[-110],deepblue,,poly_3,,[],[],50.2495,208401,49.0791,,[0.6965999999046346],[1],[],vase,,,,48.3823,,red,[1],[],,,,English,[0],,,,"[""Memory"",""Memory""]",,SESSION,,28,,,[-94],,,,74.62686567,,7,[],,,,[0],49.0791,,,,,[0],[],1,,2025-05-05_08h22.10.017,,,48.3822,[1],,,208401,[],,[-84],48.3823,,,7,1,,0,64011ddd299336698fa0c488,,,[275],,,2024.2.4,,Win32,,test3103025,,resources/pots/red_deepblue.jpg,,,,[0],46.3818,[1.1703000001907355],225,,48.3822,,,,,,poly_3_surprise,,2025-05-05_08h22.19.074,,,poly_0_surprise_relavent,"[""poly_3"",""poly_3""]",rotating_iia,,poly_3_train,,,,,,[],,
﻿[],green,,poly_1,,[],[],52.8906,208401,52.8905,,[0.6402000002861072],[1],[],vase,,,,52.2503,,yellow,[1],[],,,,English,[],,,,[],,SESSION,,14,,,[-78],,,,74.62686567,,8,[],,,,[0],52.8905,,,,,[0],[],1,,2025-05-05_08h22.10.017,,,52.2502,[],,,208401,[],,[],52.2502,,,8,1,,0,64011ddd299336698fa0c488,,,[-122],,,2024.2.4,,Win32,,test3103025,,resources/pots/yellow_green.jpg,,,,[],50.2498,[],270,,52.2502,,,,,,poly_1_surprise,,2025-05-05_08h22.19.074,,,poly_1_surprise_relavent,"[""poly_1"",""poly_1""]",rotating_iia,,poly_1_train,,,,,,[],,
﻿[],green,,poly_1,,[],[],55.4382,208401,55.438,,[0.5464999999999947],[1],[],vase,,,,54.8915,,lightblue,[1],[],,,,English,[],,,,[],,SESSION,,10,,,[-127],,,,74.62686567,,9,[],,,,[0],55.4382,,,,,[0],[],1,,2025-05-05_08h22.10.017,,,54.8913,[],,,208401,[],,[],54.8915,,,9,1,,0,64011ddd299336698fa0c488,,,[-89],,,2024.2.4,,Win32,,test3103025,,resources/pots/lightblue_green.jpg,,,,[],52.891,[],180,,54.8913,,,,,,poly_1_surprise,,2025-05-05_08h22.19.074,,,poly_2_surprise_relavent,"[""poly_1"",""poly_1""]",rotating_iia,,poly_1_train,,,,,,[],,
﻿[],deepblue,,poly_3,,[],[],57.986,208401,57.9859,,[0.5470000000000113],[1],[],vase,,,,57.4388,,green,[1],[],,,,English,[],,,,[],,SESSION,,16,,,[-120],,,,74.62686567,,10,[],,,,[0],57.9859,,,,,[0],[],1,,2025-05-05_08h22.10.017,,,57.4387,[],,,208401,[],,[],57.4388,,,10,1,,0,64011ddd299336698fa0c488,,,[272],,,2024.2.4,,Win32,,test3103025,,resources/pots/green_deepblue.jpg,,,,[],55.4385,[],180,,57.4387,,,,,,poly_3_surprise,,2025-05-05_08h22.19.074,,,poly_3_surprise_relavent,"[""poly_3"",""poly_3""]",rotating_iia,,poly_3_train,,,,,,[],,
﻿[],purple,,poly_2,,[],[],60.3466,208401,60.3465,,[0.359400000095377],[1],[],vase,,,,59.987,,red,[1],[],,,,English,[],,,,[],,SESSION,,30,,,[-117],,,,74.62686567,,11,[],,,,[0],60.3465,,,,,[0],[],1,,2025-05-05_08h22.10.017,,,59.9868,[],,,208401,[],,[],59.9869,,,11,1,,0,64011ddd299336698fa0c488,,,[87],,,2024.2.4,,Win32,,test3103025,,resources/pots/red_purple.jpg,,,,[],57.9863,[],315,,59.9867,,,,,,poly_2_surprise,,2025-05-05_08h22.19.074,,,poly_0_surprise_relavent,"[""poly_2"",""poly_2""]",rotating_iia,,poly_2_train,,,,,,[],,
﻿[],deepblue,,poly_3,,[],[],63.0142,208401,63.0141,,[0.6663000001907307],[1],[],vase,,,,62.3477,,red,[1],[],,,,English,[],,,,[],,SESSION,,23,,,[-90],,,,74.62686567,,12,[],,,,[0],63.0142,,,,,[0],[],1,,2025-05-05_08h22.10.017,,,62.3475,[],,,208401,[],,[],62.3476,,,12,1,,0,64011ddd299336698fa0c488,,,[307],,,2024.2.4,,Win32,,test3103025,,resources/pots/red_deepblue.jpg,,,,[],60.3469,[],180,,62.3475,,,,,,poly_3_surprise,,2025-05-05_08h22.19.074,,,poly_0_surprise_relavent,"[""poly_3"",""poly_3""]",rotating_iia,,poly_3_train,,,,,,[],,
﻿[-106],purple,,poly_2,,[],[],66.989,208401,65.5886,,[0.5734000000953614],[1],[],vase,,,,65.015,,green,[1],[],,,,English,[0],,,,"[""Memory"",""Memory""]",,SESSION,,22,,,[-109],,,,74.62686567,,13,[],,,,[0],65.5887,,,,,[0],[],1,,2025-05-05_08h22.10.017,,,65.0148,[1],,,208401,[],,[-137],65.0149,,,13,1,,0,64011ddd299336698fa0c488,,,[112],,,2024.2.4,,Win32,,test3103025,,resources/pots/green_purple.jpg,,,,[0],63.0145,[1.400100000381471],315,,65.0148,,,,,,poly_2_surprise,,2025-05-05_08h22.19.074,,,poly_3_surprise_relavent,"[""poly_2"",""poly_2""]",rotating_iia,,poly_2_train,,,,,,[],,
﻿[],orange,,poly_0,,[],[],69.6165,208401,69.6165,,[0.626800000190741],[1],[],vase,,,,68.9897,,yellow,[1],[],,,,English,[],,,,[],,SESSION,,24,,,[-106],,,,74.62686567,,14,[],,,,[0],69.6165,,,,,[0],[],1,,2025-05-05_08h22.10.017,,,68.9896,[],,,208401,[],,[],68.9897,,,14,1,,0,64011ddd299336698fa0c488,,,[-300],,,2024.2.4,,Win32,,test3103025,,resources/pots/yellow_orange.jpg,,,,[],66.9893,[],180,,68.9896,,,,,,poly_0_surprise,,2025-05-05_08h22.19.074,,,poly_1_surprise_relavent,"[""poly_0"",""poly_0""]",rotating_iia,,poly_0_train,,,,,,[],,
﻿[],orange,,poly_0,,[],[],72.0175,208401,72.0174,,[0.400100000381471],[1],[],vase,,,,71.6173,,green,[1],[],,,,English,[],,,,[],,SESSION,,35,,,[-95],,,,74.62686567,,15,[],,,,[0],72.0174,,,,,[0],[],1,,2025-05-05_08h22.10.017,,,71.6171,[],,,208401,[],,[],71.6172,,,15,1,,0,64011ddd299336698fa0c488,,,[-293],,,2024.2.4,,Win32,,test3103025,,resources/pots/green_orange.jpg,,,,[],69.6168,[],90,,71.6171,,,,,,poly_0_surprise,,2025-05-05_08h22.19.074,,,poly_3_surprise_relavent,"[""poly_0"",""poly_0""]",rotating_iia,,poly_0_train,,,,,,[],,
﻿[],orange,,poly_0,,[],[],74.6052,208401,74.605,,[0.5870000000000033],[1],[],vase,,,,74.018,,yellow,[1],[],,,,English,[],,,,[],,SESSION,,40,,,[-76],,,,74.62686567,,16,[],,,,[0],74.6051,,,,,[0],[],1,,2025-05-05_08h22.10.017,,,74.0179,[],,,208401,[],,[],74.018,,,16,1,,0,64011ddd299336698fa0c488,,,[-284],,,2024.2.4,,Win32,,test3103025,,resources/pots/yellow_orange.jpg,,,,[],72.0178,[],135,,74.0179,,,,,,poly_0_surprise,,2025-05-05_08h22.19.074,,,poly_1_surprise_relavent,"[""poly_0"",""poly_0""]",rotating_iia,,poly_0_train,,,,,,[],,
﻿[],green,,poly_1,,[],[],77.206,208401,77.2059,,[0.5999999999999943],[1],[],vase,,,,76.6058,,yellow,[1],[],,,,English,[],,,,[],,SESSION,,36,,,[-85],,,,74.62686567,,17,[],,,,[0],77.2059,,,,,[0],[],1,,2025-05-05_08h22.10.017,,,76.6057,[],,,208401,[],,[],76.6057,,,17,1,,0,64011ddd299336698fa0c488,,,[-102],,,2024.2.4,,Win32,,test3103025,,resources/pots/yellow_green.jpg,,,,[],74.6055,[],90,,76.6057,,,,,,poly_1_surprise,,2025-05-05_08h22.19.074,,,poly_1_surprise_relavent,"[""poly_1"",""poly_1""]",rotating_iia,,poly_1_train,,,,,,[],,
﻿[],green,,poly_1,,[],[],79.7669,208401,79.7668,,[0.5600999999046365],[1],[],vase,,,,79.2067,,red,[1],[],,,,English,[],,,,[],,SESSION,,5,,,[-98],,,,74.62686567,,18,[],,,,[0],79.7669,,,,,[0],[],1,,2025-05-05_08h22.10.017,,,79.2066,[],,,208401,[],,[],79.2066,,,18,1,,0,64011ddd299336698fa0c488,,,[-93],,,2024.2.4,,Win32,,test3103025,,resources/pots/red_green.jpg,,,,[],77.2062,[],270,,79.2066,,,,,,poly_1_surprise,,2025-05-05_08h22.19.074,,,poly_0_surprise_relavent,"[""poly_1"",""poly_1""]",rotating_iia,,poly_1_train,,,,,,[],,
﻿[],orange,,poly_0,,[],[],82.2746,208401,82.2746,,[0.5068000001907365],[1],[],vase,,,,81.7677,,yellow,[1],[],,,,English,[],,,,[],,SESSION,,11,,,[-111],,,,74.62686567,,19,[],,,,[0],82.2746,,,,,[0],[],1,,2025-05-05_08h22.10.017,,,81.7676,[],,,208401,[],,[],81.7676,,,19,1,,0,64011ddd299336698fa0c488,,,[-266],,,2024.2.4,,Win32,,test3103025,,resources/pots/yellow_orange.jpg,,,,[],79.7672,[],180,,81.7675,,,,,,poly_0_surprise,,2025-05-05_08h22.19.074,,,poly_1_surprise_relavent,"[""poly_0"",""poly_0""]",rotating_iia,,poly_0_train,,,,,,[],,
﻿[],deepblue,,poly_3,,[],[],84.9287,208401,84.9286,,[0.653499999999994],[1],[],vase,,,,84.2751,,red,[1],[],,,,English,[],,,,[],,SESSION,,27,,,[-78],,,,74.62686567,,20,[],,,,[0],84.9287,,,,,[0],[],1,,2025-05-05_08h22.10.017,,,84.275,[],,,208401,[],,[],84.275,,,20,1,,0,64011ddd299336698fa0c488,,,[299],,,2024.2.4,,Win32,,test3103025,,resources/pots/red_deepblue.jpg,,,,[],82.2748,[],225,,84.275,,,,,,poly_3_surprise,,2025-05-05_08h22.19.074,,,poly_0_surprise_relavent,"[""poly_3"",""poly_3""]",rotating_iia,,poly_3_train,,,,,,[],,
﻿[-108],purple,,poly_2,,[1.7029000000953687],[0],96.5196,208401,93.6652,,[4.027400000095355],[1],"[""num_4"",""num_4""]",vase,,,,89.6378,,lightblue,[1],[1],,,,English,[0],,,,"[""Memory"",""Memory""]",,SESSION,,1,,,[-100],,,,74.62686567,,21,[-99],,,,[0],93.6654,,,,,[0],[0],1,,2025-05-05_08h22.10.017,,,86.9294,[1],,,208401,[85],,[-78],89.6373,,,21,1,,0,64011ddd299336698fa0c488,,,[92],,,2024.2.4,,Win32,,test3103025,,resources/pots/lightblue_purple.jpg,,,,[0],84.9291,[2.853999999999999],45,,86.9293,,,,,,poly_2_surprise,,2025-05-05_08h22.19.074,,,poly_2_surprise_relavent,"[""poly_2"",""poly_2""]",rotating_iia,,poly_2_train,,,,,,[1],,
﻿[],orange,,poly_0,,[],[],99.5206,208401,99.5205,,[0.9994999999999976],[1],[],vase,,,,98.5209,,lightblue,[1],[],,,,English,[],,,,[],,SESSION,,37,,,[-72],,,,74.62686567,,22,[],,,,[0],99.5206,,,,,[0],[],1,,2025-05-05_08h22.10.017,,,98.5208,[],,,208401,[],,[],98.5209,,,22,1,,0,64011ddd299336698fa0c488,,,[-311],,,2024.2.4,,Win32,,test3103025,,resources/pots/lightblue_orange.jpg,,,,[],96.5199,[],180,,98.5207,,,,,,poly_0_surprise,,2025-05-05_08h22.19.074,,,poly_2_surprise_relavent,"[""poly_0"",""poly_0""]",rotating_iia,,poly_0_train,,,,,,[],,
﻿[],deepblue,,poly_3,,[],[],102.1483,208401,102.1482,,[0.6269000000953611],[1],[],vase,,,,101.5213,,yellow,[1],[],,,,English,[],,,,[],,SESSION,,19,,,[-67],,,,74.62686567,,23,[],,,,[0],102.1483,,,,,[0],[],1,,2025-05-05_08h22.10.017,,,101.5212,[],,,208401,[],,[],101.5212,,,23,1,,0,64011ddd299336698fa0c488,,,[306],,,2024.2.4,,Win32,,test3103025,,resources/pots/yellow_deepblue.jpg,,,,[],99.5209,[],225,,101.5212,,,,,,poly_3_surprise,,2025-05-05_08h22.19.074,,,poly_1_surprise_relavent,"[""poly_3"",""poly_3""]",rotating_iia,,poly_3_train,,,,,,[],,
﻿[-110],green,,poly_1,,[],[],105.9629,208401,104.5892,,[0.440099999904632],[1],[],vase,,,,104.1489,,lightblue,[1],[],,,,English,[0],,,,"[""Memory"",""Memory""]",,SESSION,,26,,,[-110],,,,74.62686567,,24,[],,,,[0],104.5892,,,,,[0],[],1,,2025-05-05_08h22.10.017,,,104.1489,[1],,,208401,[],,[-104],104.1489,,,24,1,,0,64011ddd299336698fa0c488,,,[-104],,,2024.2.4,,Win32,,test3103025,,resources/pots/lightblue_green.jpg,,,,[0],102.1486,[1.3734999999999928],135,,104.1489,,,,,,poly_1_surprise,,2025-05-05_08h22.19.074,,,poly_2_surprise_relavent,"[""poly_1"",""poly_1""]",rotating_iia,,poly_1_train,,,,,,[],,
﻿[],purple,,poly_2,,[],[],108.6707,208401,108.6705,,[0.7063000001907369],[1],[],vase,,,,107.9642,,green,[1],[],,,,English,[],,,,[],,SESSION,,0,,,[-108],,,,74.62686567,,25,[],,,,[0],108.6706,,,,,[0],[],1,,2025-05-05_08h22.10.017,,,107.9641,[],,,208401,[],,[],107.9641,,,25,1,,0,64011ddd299336698fa0c488,,,[91],,,2024.2.4,,Win32,,test3103025,,resources/pots/green_purple.jpg,,,,[],105.9632,[],90,,107.9641,,,,,,poly_2_surprise,,2025-05-05_08h22.19.074,,,poly_3_surprise_relavent,"[""poly_2"",""poly_2""]",rotating_iia,,poly_2_train,,,,,,[],,
﻿[],deepblue,,poly_3,,[],[],111.3516,208401,111.3515,,[0.679700000286104],[1],[],vase,,,,110.6718,,green,[1],[],,,,English,[],,,,[],,SESSION,,15,,,[-109],,,,74.62686567,,26,[],,,,[0],111.3516,,,,,[0],[],1,,2025-05-05_08h22.10.017,,,110.6717,[],,,208401,[],,[],110.6717,,,26,1,,0,64011ddd299336698fa0c488,,,[274],,,2024.2.4,,Win32,,test3103025,,resources/pots/green_deepblue.jpg,,,,[],108.671,[],225,,110.6717,,,,,,poly_3_surprise,,2025-05-05_08h22.19.074,,,poly_3_surprise_relavent,"[""poly_3"",""poly_3""]",rotating_iia,,poly_3_train,,,,,,[],,
﻿[-97],purple,,poly_2,,[],[],114.9661,208401,113.9791,,[0.6269000000953611],[1],[],vase,,,,113.3522,,lightblue,[1],[],,,,English,[0],,,,"[""Memory"",""Memory""]",,SESSION,,6,,,[-109],,,,74.62686567,,27,[],,,,[0],113.9791,,,,,[0],[],1,,2025-05-05_08h22.10.017,,,113.3521,[1],,,208401,[],,[-97],113.3522,,,27,1,,0,64011ddd299336698fa0c488,,,[103],,,2024.2.4,,Win32,,test3103025,,resources/pots/lightblue_purple.jpg,,,,[0],111.3519,[0.9869000000953605],270,,113.3521,,,,,,poly_2_surprise,,2025-05-05_08h22.19.074,,,poly_2_surprise_relavent,"[""poly_2"",""poly_2""]",rotating_iia,,poly_2_train,,,,,,[],,
﻿[],deepblue,,poly_3,,[],[],117.3407,208401,117.3406,,[0.37350000000000705],[1],[],vase,,,,116.967,,yellow,[1],[],,,,English,[],,,,[],,SESSION,,39,,,[-111],,,,74.62686567,,28,[],,,,[0],117.3406,,,,,[0],[],1,,2025-05-05_08h22.10.017,,,116.9669,[],,,208401,[],,[],116.9669,,,28,1,,0,64011ddd299336698fa0c488,,,[291],,,2024.2.4,,Win32,,test3103025,,resources/pots/yellow_deepblue.jpg,,,,[],114.9665,[],315,,116.9668,,,,,,poly_3_surprise,,2025-05-05_08h22.19.074,,,poly_1_surprise_relavent,"[""poly_3"",""poly_3""]",rotating_iia,,poly_3_train,,,,,,[],,
﻿[],green,,poly_1,,[],[],119.9146,208401,119.9145,,[0.5733000001907271],[1],[],vase,,,,119.3411,,yellow,[1],[],,,,English,[],,,,[],,SESSION,,29,,,[-118],,,,74.62686567,,29,[],,,,[0],119.9145,,,,,[0],[],1,,2025-05-05_08h22.10.017,,,119.341,[],,,208401,[],,[],119.341,,,29,1,,0,64011ddd299336698fa0c488,,,[-94],,,2024.2.4,,Win32,,test3103025,,resources/pots/yellow_green.jpg,,,,[],117.3411,[],225,,119.341,,,,,,poly_1_surprise,,2025-05-05_08h22.19.074,,,poly_1_surprise_relavent,"[""poly_1"",""poly_1""]",rotating_iia,,poly_1_train,,,,,,[],,
﻿[],purple,,poly_2,,[],[],122.4757,208401,122.4755,,[0.5598000001907337],[1],[],vase,,,,121.9157,,green,[1],[],,,,English,[],,,,[],,SESSION,,2,,,[-100],,,,74.62686567,,30,[],,,,[0],122.4756,,,,,[0],[],1,,2025-05-05_08h22.10.017,,,121.9156,[],,,208401,[],,[],121.9156,,,30,1,,0,64011ddd299336698fa0c488,,,[113],,,2024.2.4,,Win32,,test3103025,,resources/pots/green_purple.jpg,,,,[],119.9149,[],45,,121.9156,,,,,,poly_2_surprise,,2025-05-05_08h22.19.074,,,poly_3_surprise_relavent,"[""poly_2"",""poly_2""]",rotating_iia,,poly_2_train,,,,,,[],,
﻿[],green,,poly_1,,[],[],124.9164,208401,124.9163,,[0.4398999996185182],[1],[],vase,,,,124.4763,,lightblue,[1],[],,,,English,[],,,,[],,SESSION,,25,,,[-124],,,,74.62686567,,31,[],,,,[0],124.9164,,,,,[0],[],1,,2025-05-05_08h22.10.017,,,124.4762,[],,,208401,[],,[],124.4762,,,31,1,,0,64011ddd299336698fa0c488,,,[-121],,,2024.2.4,,Win32,,test3103025,,resources/pots/lightblue_green.jpg,,,,[],122.4759,[],45,,124.4762,,,,,,poly_1_surprise,,2025-05-05_08h22.19.074,,,poly_2_surprise_relavent,"[""poly_1"",""poly_1""]",rotating_iia,,poly_1_train,,,,,,[],,
﻿[],deepblue,,poly_3,,[],[],127.3973,208401,127.3972,,[0.48940000009537243],[1],[],vase,,,,126.9078,,yellow,[1],[],,,,English,[],,,,[],,SESSION,,20,,,[-110],,,,74.62686567,,32,[],,,,[0],127.3973,,,,,[0],[],1,,2025-05-05_08h22.10.017,,,126.9077,[],,,208401,[],,[],126.9077,,,32,1,,0,64011ddd299336698fa0c488,,,[278],,,2024.2.4,,Win32,,test3103025,,resources/pots/yellow_deepblue.jpg,,,,[],124.9167,[],180,,126.9076,,,,,,poly_3_surprise,,2025-05-05_08h22.19.074,,,poly_1_surprise_relavent,"[""poly_3"",""poly_3""]",rotating_iia,,poly_3_train,,,,,,[],,
﻿[],deepblue,,poly_3,,[],[],129.785,208401,129.785,,[0.38700000000000045],[1],[],vase,,,,129.398,,green,[1],[],,,,English,[],,,,[],,SESSION,,31,,,[-101],,,,74.62686567,,33,[],,,,[0],129.785,,,,,[0],[],1,,2025-05-05_08h22.10.017,,,129.3979,[],,,208401,[],,[],129.3979,,,33,1,,0,64011ddd299336698fa0c488,,,[281],,,2024.2.4,,Win32,,test3103025,,resources/pots/green_deepblue.jpg,,,,[],127.3976,[],135,,129.3978,,,,,,poly_3_surprise,,2025-05-05_08h22.19.074,,,poly_3_surprise_relavent,"[""poly_3"",""poly_3""]",rotating_iia,,poly_3_train,,,,,,[],,
﻿[-106],green,,poly_1,,[],[],133.3727,208401,132.519,,[0.7334000000953438],[1],[],vase,,,,131.7855,,red,[1],[],,,,English,[0],,,,"[""Memory"",""Memory""]",,SESSION,,18,,,[-101],,,,74.62686567,,34,[],,,,[0],132.5191,,,,,[0],[],1,,2025-05-05_08h22.10.017,,,131.7854,[1],,,208401,[],,[-90],131.7855,,,34,1,,0,64011ddd299336698fa0c488,,,[-117],,,2024.2.4,,Win32,,test3103025,,resources/pots/red_green.jpg,,,,[0],129.7854,[0.8534999999999968],0,,131.7854,,,,,,poly_1_surprise,,2025-05-05_08h22.19.074,,,poly_0_surprise_relavent,"[""poly_1"",""poly_1""]",rotating_iia,,poly_1_train,,,,,,[],,
﻿[],green,,poly_1,,[],[],135.6942,208401,135.6941,,[0.3199999999999932],[1],[],vase,,,,135.3741,,red,[1],[],,,,English,[],,,,[],,SESSION,,7,,,[-98],,,,74.62686567,,35,[],,,,[0],135.6942,,,,,[0],[],1,,2025-05-05_08h22.10.017,,,135.374,[],,,208401,[],,[],135.3741,,,35,1,,0,64011ddd299336698fa0c488,,,[-98],,,2024.2.4,,Win32,,test3103025,,resources/pots/red_green.jpg,,,,[],133.373,[],135,,135.374,,,,,,poly_1_surprise,,2025-05-05_08h22.19.074,,,poly_0_surprise_relavent,"[""poly_1"",""poly_1""]",rotating_iia,,poly_1_train,,,,,,[],,
﻿[],orange,,poly_0,,[],[],138.1749,208401,138.1748,,[0.48940000009537243],[1],[],vase,,,,137.6853,,green,[1],[],,,,English,[],,,,[],,SESSION,,32,,,[-119],,,,74.62686567,,36,[],,,,[0],138.1748,,,,,[0],[],1,,2025-05-05_08h22.10.017,,,137.6852,[],,,208401,[],,[],137.6852,,,36,1,,0,64011ddd299336698fa0c488,,,[-260],,,2024.2.4,,Win32,,test3103025,,resources/pots/green_orange.jpg,,,,[],135.6945,[],180,,137.6852,,,,,,poly_0_surprise,,2025-05-05_08h22.19.074,,,poly_3_surprise_relavent,"[""poly_0"",""poly_0""]",rotating_iia,,poly_0_train,,,,,,[],,
﻿[],green,,poly_1,,[],[],140.6286,208401,140.6286,,[0.45349999999999113],[1],[],vase,,,,140.1751,,red,[1],[],,,,English,[],,,,[],,SESSION,,41,,,[-112],,,,74.62686567,,37,[],,,,[0],140.6286,,,,,[0],[],1,,2025-05-05_08h22.10.017,,,140.1751,[],,,208401,[],,[],140.1751,,,37,1,,0,64011ddd299336698fa0c488,,,[-108],,,2024.2.4,,Win32,,test3103025,,resources/pots/red_green.jpg,,,,[],138.1753,[],225,,140.175,,,,,,poly_1_surprise,,2025-05-05_08h22.19.074,,,poly_0_surprise_relavent,"[""poly_1"",""poly_1""]",rotating_iia,,poly_1_train,,,,,,[],,
﻿[-95],deepblue,,poly_3,,[],[],144.1231,208401,143.2029,,[0.5731999998092476],[1],[],vase,,,,142.6296,,red,[1],[],,,,English,[0],,,,"[""Memory"",""Memory""]",,SESSION,,9,,,[-105],,,,74.62686567,,38,[],,,,[0],143.203,,,,,[0],[],1,,2025-05-05_08h22.10.017,,,142.6294,[1],,,208401,[],,[-105],142.6295,,,38,1,,0,64011ddd299336698fa0c488,,,[290],,,2024.2.4,,Win32,,test3103025,,resources/pots/red_deepblue.jpg,,,,[0],140.629,[0.920099999904636],180,,142.6294,,,,,,poly_3_surprise,,2025-05-05_08h22.19.074,,,poly_0_surprise_relavent,"[""poly_3"",""poly_3""]",rotating_iia,,poly_3_train,,,,,,[],,
﻿[],deepblue,,poly_3,,[],[],146.6042,208401,146.6041,,[0.4895000000000209],[1],[],vase,,,,146.1146,,green,[1],[],,,,English,[],,,,[],,SESSION,,13,,,[-78],,,,74.62686567,,39,[],,,,[0],146.6041,,,,,[0],[],1,,2025-05-05_08h22.10.017,,,146.1146,[],,,208401,[],,[],146.1146,,,39,1,,0,64011ddd299336698fa0c488,,,[257],,,2024.2.4,,Win32,,test3103025,,resources/pots/green_deepblue.jpg,,,,[],144.1234,[],315,,146.1145,,,,,,poly_3_surprise,,2025-05-05_08h22.19.074,,,poly_3_surprise_relavent,"[""poly_3"",""poly_3""]",rotating_iia,,poly_3_train,,,,,,[],,
﻿[],purple,,poly_2,,[],[],148.9251,208401,148.925,,[0.3200000000000216],[1],[],vase,,,,148.6049,,lightblue,[1],[],,,,English,[],,,,[],,SESSION,,12,,,[-72],,,,74.62686567,,40,[],,,,[0],148.925,,,,,[0],[],1,,2025-05-05_08h22.10.017,,,148.6047,[],,,208401,[],,[],148.6048,,,40,1,,0,64011ddd299336698fa0c488,,,[83],,,2024.2.4,,Win32,,test3103025,,resources/pots/lightblue_purple.jpg,,,,[],146.6045,[],45,,148.6047,,,,,,poly_2_surprise,,2025-05-05_08h22.19.074,,,poly_2_surprise_relavent,"[""poly_2"",""poly_2""]",rotating_iia,,poly_2_train,,,,,,[],,
﻿[],orange,,poly_0,,[],[],151.4327,208401,151.4326,,[0.5065999999046369],[1],[],vase,,,,150.926,,lightblue,[1],[],,,,English,[],,,,[],,SESSION,,21,,,[-103],,,,74.62686567,,41,[],,,,[0],151.4326,,,,,[0],[],1,,2025-05-05_08h22.10.017,,,150.926,[],,,208401,[],,[],150.926,,,41,1,,0,64011ddd299336698fa0c488,,,[-280],,,2024.2.4,,Win32,,test3103025,,resources/pots/lightblue_orange.jpg,,,,[],148.9254,[],270,,150.926,,,,,,poly_0_surprise,,2025-05-05_08h22.19.074,,,poly_2_surprise_relavent,"[""poly_0"",""poly_0""]",rotating_iia,,poly_0_train,,,,,,[],,
﻿,purple,,poly_2,[1],,,,208401,,,,,,flower,,1,"[""poly_2_surprise_relavent"",""poly_2_surprise_relavent""]",,[0],lightblue,,,,[-126],[-73],English,,[-115],153.4332,156.4612,,,SESSION,,,,[1],,,2,[1],74.62686567,"[""Guess"",""Guess""]",,,"[""poly_1_surprise"",""poly_1_surprise""]",[0],,,,[-298],,,[2.7335999999046408],,,,[0],2025-05-05_08h22.10.017,,,,,0,,208401,,,,,0,151.4384,,1,159.7957,,64011ddd299336698fa0c488,,,,0,,2024.2.4,,Win32,,test3103025,[0],resources/pots/lightblue_purple.jpg,,[3.3338000001907346],[116],,,,225,[0.2931999998092465],,153.7269,[-88],153.7268,,[0],poly_2_surprise,156.4613,2025-05-05_08h22.19.074,,153.4334,poly_2_surprise_relavent,,rotating_iia,[0],poly_2_train,,[0],,,[1],,,
﻿,orange,,poly_1,[1],,,,208401,,,,,,flower,,1,"[""poly_0_surprise_relavent"",""poly_0_surprise_relavent""]",,[0],yellow,,,,[-119],[-121],English,,[-115],161.7962,166.6381,,,SESSION,,,,[1],,,1,[1],74.62686567,"[""Guess"",""Guess""]",,,"[""poly_1_surprise"",""poly_1_surprise""]",[0],,,,[-301],,,[2.240700000286097],,,,[0],2025-05-05_08h22.10.017,,,,,1,,208401,,,,,0,159.796,,1,168.452,,64011ddd299336698fa0c488,,,,1,,2024.2.4,,Win32,,test3103025,[0],resources/pots/yellow_orange.jpg,,[1.8136999998092733],[-311],,,,225,[2.600900000095379],,164.3973,[-114],164.3973,,[0],poly_1_surprise,166.6381,2025-05-05_08h22.19.074,,161.7963,poly_0_surprise_relavent,,rotating_iia,[0],poly_1_train,,[1],,,[1],,,
﻿,orange,,poly_1,[1],,,,208401,,,,,,flower,,1,"[""poly_0_surprise_relavent"",""poly_0_surprise_relavent""]",,[0],yellow,,,,[-87],[-112],English,,[-100],170.4526,172.4935,,,SESSION,,,,[1],,,0,[1],74.62686567,"[""Memory"",""Memory""]",,,"[""poly_1_surprise"",""poly_1_surprise""]",[0],,,,[-98],,,[1.1069999999999993],,,,[0],2025-05-05_08h22.10.017,,,,,2,,208401,,,,,0,168.4522,,1,173.7607,,64011ddd299336698fa0c488,,,,2,,2024.2.4,,Win32,,test3103025,[0],resources/pots/yellow_orange.jpg,,[1.2669000000953474],[-272],,,,0,[0.9336999998092779],,171.3865,[-98],171.3864,,[0],poly_1_surprise,172.4936,2025-05-05_08h22.19.074,,170.4526,poly_0_surprise_relavent,,rotating_iia,[0],poly_1_train,,[1],,,[1],,,
﻿,orange,,poly_3,[1],,,,208401,,,,,,flower,,1,"[""poly_0_surprise_relavent"",""poly_0_surprise_relavent""]",,[0],green,,,,[-88],[293],English,,[-121],175.7615,177.4685,,,SESSION,,,,[1],,,3,[1],74.62686567,"[""Memory"",""Memory""]",,,"[""poly_3_surprise"",""poly_3_surprise""]",[0],,,,[-128],,,[0.7467000002860971],,,,[0],2025-05-05_08h22.10.017,,,,,3,,208401,,,,,0,173.761,,1,178.4556,,64011ddd299336698fa0c488,,,,3,,2024.2.4,,Win32,,test3103025,[0],resources/pots/green_orange.jpg,,[0.9869999999999948],[-285],,,,135,[0.9599999999999795],,176.7217,[-115],176.7216,,[0],poly_3_surprise,177.4685,2025-05-05_08h22.19.074,,175.7616,poly_0_surprise_relavent,,rotating_iia,[0],poly_3_train,,[1],,,[1],,,
﻿,,178.4559,,,,,,208401,,,,,,,,,,,,,,,,,,English,,,,,,,SESSION,,,,,,,,,74.62686567,,,,,,,,,,,,,,,,,2025-05-05_08h22.10.017,,,,,,,208401,,,,,,,,,,,64011ddd299336698fa0c488,,,,,,2024.2.4,,Win32,,test3103025,,,,,,,,,,,,,,,,,,,2025-05-05_08h22.19.074,,,,,rotating_iia,,,,,179.6827,,,,,
﻿,,,,,,,,57318,,,,,,,,,,,,,,,,,,English,,,,,,0.0003,SESSION,,,,,,25.6063,,,60.24096386,,,,,,,,,,,,,,,,,2025-05-05_07h23.39.535,,,,,,,57318,,,,,,,,,,,671e39c25e5e3f340a6f21d4,,,,,,2024.2.4,,Win32,,test3103025,,,,,,,,,,,,,,,,,,,2025-05-05_07h23.54.095,,,,,rotating_iia,,,,,,,,,,
﻿,purple,,poly_3,,,,,57318,,27.6566,,,,flower,25.6542,,,,,green,,,,,,English,,,,,,,SESSION,30.3232,,,,,,,,60.24096386,,,,,,0,,,,0,1,,,,,,2025-05-05_07h23.39.535,[0],,,,,,57318,,[2.6623999999761594],,,,,,1,,,671e39c25e5e3f340a6f21d4,9,30.3253,,,0,2024.2.4,[0],Win32,[1],test3103025,,resources/pots/green_purple.jpg,,,,,,,135,,,,,,[0],,poly_3_surprise,,2025-05-05_07h23.54.095,"[""poly_1_train"",""poly_1_train""]",,poly_2_surprise_relavent,,rotating_iia,,poly_3_train,[-90],,,[-131],,,27.6562,37.8759
﻿,orange,,poly_3,,,,,57318,,39.8719,,,,flower,37.8787,,,,,green,,,,,,English,,,,,,,SESSION,40.8377,,,,,,,,60.24096386,,,,,,1,,,,1,1,,,,,,2025-05-05_07h23.39.535,[0],,,,,,57318,,[0.9652000000476804],,,,,,1,,,671e39c25e5e3f340a6f21d4,4,40.8382,,,0,2024.2.4,[1],Win32,[1],test3103025,,resources/pots/green_orange.jpg,,,,,,,90,,,,,,[0],,poly_3_surprise,,2025-05-05_07h23.54.095,"[""poly_3_train"",""poly_3_train""]",,poly_0_surprise_relavent,,rotating_iia,,poly_3_train,[305],,,[-105],,,39.8714,40.8384
﻿,purple,,poly_0,,,,,57318,,42.8375,,,,flower,40.8392,,,,,red,,,,,,English,,,,,,,SESSION,44.1373,,,,,,,,60.24096386,,,,,,2,,,,2,1,,,,,,2025-05-05_07h23.39.535,[0],,,,,,57318,,[1.299600000023844],,,,,,1,,,671e39c25e5e3f340a6f21d4,7,44.1377,,,0,2024.2.4,[1],Win32,[1],test3103025,,resources/pots/red_purple.jpg,,,,,,,0,,,,,,[0],,poly_0_surprise,,2025-05-05_07h23.54.095,"[""poly_0_train"",""poly_0_train""]",,poly_2_surprise_relavent,,rotating_iia,,poly_0_train,[-328],,,[-118],,,42.8373,44.1378
﻿,orange,,poly_1,,,,,57318,,46.1367,,,,flower,44.1389,,,,,yellow,,,,,,English,,,,,,,SESSION,47.1032,,,,,,,,60.24096386,,,,,,3,,,,3,1,,,,,,2025-05-05_07h23.39.535,[0],,,,,,57318,,[0.9663000000715201],,,,,,1,,,671e39c25e5e3f340a6f21d4,2,47.1037,,,0,2024.2.4,[1],Win32,[1],test3103025,,resources/pots/yellow_orange.jpg,,,,,,,315,,,,,,[0],,poly_1_surprise,,2025-05-05_07h23.54.095,"[""poly_1_train"",""poly_1_train""]",,poly_0_surprise_relavent,,rotating_iia,,poly_1_train,[-131],,,[-110],,,46.1366,47.1038
